File: code/XRD_Analysis/20241023_XRD_Analsis/20241023_ZnZrOx-SAPO-14-1_assynth_PID-20241011.xy
4.98146 1071.0
5.0483 938.0
5.11515 917.0
5.18199 959.0
5.24884 971.0
5.31568 882.0
5.38253 929.0
5.44937 825.0
5.51622 831.0
5.58306 854.0
5.64991 924.0
5.71675 834.0
5.7836 838.0
5.85044 868.0
5.91729 809.0
5.98413 822.0
6.05098 782.0
6.11782 753.0
6.18467 763.0
6.25151 766.0
6.31836 788.0
6.3852 819.0
6.45205 764.0
6.51889 725.0
6.58574 727.0
6.65258 738.0
6.71943 748.0
6.78627 689.0
6.85312 772.0
6.91996 713.0
6.98681 715.0
7.05365 692.0
7.1205 646.0
7.18734 652.0
7.25419 642.0
7.32103 690.0
7.38788 704.0
7.45472 662.0
7.52157 634.0
7.58841 650.0
7.65526 684.0
7.7221 645.0
7.78895 708.0
7.85579 646.0
7.92264 678.0
7.98948 609.0
8.05633 675.0
8.12317 647.0
8.19002 665.0
8.25686 697.0
8.32371 742.0
8.39055 839.0
8.4574 1145.0
8.52424 1863.0
8.59109 2903.0
8.65793 2902.0
8.72478 2237.0
8.79162 1783.0
8.85847 1493.0
8.92532 1290.0
8.99216 942.0
9.05901 724.0
9.12585 748.0
9.1927 709.0
9.25954 767.0
9.32639 767.0
9.39323 739.0
9.46008 831.0
9.52692 912.0
9.59377 737.0
9.66061 552.0
9.72746 542.0
9.7943 542.0
9.86115 552.0
9.92799 531.0
9.99484 538.0
10.0617 510.0
10.1285 506.0
10.1954 473.0
10.2622 490.0
10.3291 470.0
10.3959 470.0
10.4628 456.0
10.5296 490.0
10.5964 496.0
10.6633 511.0
10.7301 513.0
10.797 532.0
10.8638 561.0
10.9307 769.0
10.9975 1057.0
11.0644 1019.0
11.1312 886.0
11.198 776.0
11.2649 626.0
11.3317 619.0
11.3986 572.0
11.4654 495.0
11.5323 520.0
11.5991 533.0
11.666 552.0
11.7328 542.0
11.7997 513.0
11.8665 496.0
11.9333 513.0
12.0002 460.0
12.067 408.0
12.1339 417.0
12.2007 414.0
12.2676 439.0
12.3344 460.0
12.4013 434.0
12.4681 465.0
12.5349 453.0
12.6018 449.0
12.6686 458.0
12.7355 493.0
12.8023 569.0
12.8692 652.0
12.936 932.0
13.0029 1239.0
13.0697 1346.0
13.1366 1690.0
13.2034 2041.0
13.2702 2198.0
13.3371 2150.0
13.4039 1563.0
13.4708 1042.0
13.5376 752.0
13.6045 665.0
13.6713 662.0
13.7382 574.0
13.805 502.0
13.8719 532.0
13.9387 591.0
14.0055 521.0
14.0724 496.0
14.1392 532.0
14.2061 685.0
14.2729 673.0
14.3398 533.0
14.4066 503.0
14.4735 600.0
14.5403 633.0
14.6071 489.0
14.674 409.0
14.7408 409.0
14.8077 387.0
14.8745 406.0
14.9414 395.0
15.0082 371.0
15.0751 409.0
15.1419 403.0
15.2088 391.0
15.2756 401.0
15.3424 401.0
15.4093 409.0
15.4761 426.0
15.543 413.0
15.6098 513.0
15.6767 550.0
15.7435 616.0
15.8104 729.0
15.8772 768.0
15.944 809.0
16.0109 881.0
16.0777 891.0
16.1446 693.0
16.2114 492.0
16.2783 402.0
16.3451 418.0
16.412 404.0
16.4788 399.0
16.5457 394.0
16.6125 430.0
16.6793 409.0
16.7462 400.0
16.813 413.0
16.8799 387.0
16.9467 398.0
17.0136 358.0
17.0804 403.0
17.1473 482.0
17.2141 591.0
17.2809 612.0
17.3478 665.0
17.4146 719.0
17.4815 657.0
17.5483 688.0
17.6152 636.0
17.682 625.0
17.7489 654.0
17.8157 630.0
17.8826 622.0
17.9494 627.0
18.0162 650.0
18.0831 571.0
18.1499 525.0
18.2168 474.0
18.2836 481.0
18.3505 532.0
18.4173 660.0
18.4842 592.0
18.551 547.0
18.6179 503.0
18.6847 517.0
18.7515 461.0
18.8184 551.0
18.8852 540.0
18.9521 534.0
19.0189 528.0
19.0858 497.0
19.1526 500.0
19.2195 526.0
19.2863 502.0
19.3531 456.0
19.42 448.0
19.4868 460.0
19.5537 482.0
19.6205 478.0
19.6874 548.0
19.7542 566.0
19.8211 543.0
19.8879 467.0
19.9548 450.0
20.0216 446.0
20.0884 454.0
20.1553 482.0
20.2221 419.0
20.289 447.0
20.3558 457.0
20.4227 509.0
20.4895 617.0
20.5564 602.0
20.6232 649.0
20.69 571.0
20.7569 596.0
20.8237 648.0
20.8906 730.0
20.9574 871.0
21.0243 1013.0
21.0911 974.0
21.158 861.0
21.2248 821.0
21.2917 969.0
21.3585 1277.0
21.4253 1293.0
21.4922 987.0
21.559 989.0
21.6259 1191.0
21.6927 1246.0
21.7596 1320.0
21.8264 1338.0
21.8933 1392.0
21.9601 1638.0
22.0269 1862.0
22.0938 2108.0
22.1606 2265.0
22.2275 1869.0
22.2943 1380.0
22.3612 1195.0
22.428 1024.0
22.4949 897.0
22.5617 860.0
22.6286 747.0
22.6954 688.0
22.7622 694.0
22.8291 622.0
22.8959 607.0
22.9628 594.0
23.0296 606.0
23.0965 578.0
23.1633 605.0
23.2302 561.0
23.297 563.0
23.3639 581.0
23.4307 529.0
23.4975 547.0
23.5644 574.0
23.6312 533.0
23.6981 554.0
23.7649 518.0
23.8318 567.0
23.8986 544.0
23.9655 537.0
24.0323 535.0
24.0991 544.0
24.166 584.0
24.2328 767.0
24.2997 799.0
24.3665 602.0
24.4334 588.0
24.5002 553.0
24.5671 558.0
24.6339 594.0
24.7008 636.0
24.7676 620.0
24.8344 679.0
24.9013 678.0
24.9681 678.0
25.035 725.0
25.1018 745.0
25.1687 719.0
25.2355 817.0
25.3024 859.0
25.3692 853.0
25.436 879.0
25.5029 885.0
25.5697 878.0
25.6366 885.0
25.7034 862.0
25.7703 956.0
25.8371 997.0
25.904 922.0
25.9708 766.0
26.0377 779.0
26.1045 734.0
26.1713 689.0
26.2382 715.0
26.305 725.0
26.3719 799.0
26.4387 745.0
26.5056 801.0
26.5724 897.0
26.6393 865.0
26.7061 836.0
26.773 895.0
26.8398 1001.0
26.9066 1121.0
26.9735 1123.0
27.0403 929.0
27.1072 799.0
27.174 800.0
27.2409 850.0
27.3077 779.0
27.3746 745.0
27.4414 809.0
27.5082 750.0
27.5751 689.0
27.6419 723.0
27.7088 741.0
27.7756 725.0
27.8425 752.0
27.9093 784.0
27.9762 707.0
28.043 888.0
28.1099 957.0
28.1767 837.0
28.2435 809.0
28.3104 813.0
28.3772 727.0
28.4441 774.0
28.5109 767.0
28.5778 797.0
28.6446 909.0
28.7115 975.0
28.7783 1042.0
28.8451 1111.0
28.912 1146.0
28.9788 1301.0
29.0457 1399.0
29.1125 1411.0
29.1794 1493.0
29.2462 1611.0
29.3131 1520.0
29.3799 1569.0
29.4468 1524.0
29.5136 1521.0
29.5804 1676.0
29.6473 1761.0
29.7141 1939.0
29.781 1950.0
29.8478 2121.0
29.9147 2132.0
29.9815 2179.0
30.0484 2296.0
30.1152 2585.0
30.182 3239.0
30.2489 3931.0
30.3157 4785.0
30.3826 5770.0
30.4494 6674.0
30.5163 6319.0
30.5831 5103.0
30.65 3840.0
30.7168 2814.0
30.7837 2142.0
30.8505 1699.0
30.9173 1443.0
30.9842 1271.0
31.051 1188.0
31.1179 1084.0
31.1847 1022.0
31.2516 981.0
31.3184 891.0
31.3853 918.0
31.4521 870.0
31.519 808.0
31.5858 771.0
31.6526 779.0
31.7195 836.0
31.7863 886.0
31.8532 912.0
31.92 903.0
31.9869 914.0
32.0537 889.0
32.1206 917.0
32.1874 950.0
32.2542 949.0
32.3211 869.0
32.3879 927.0
32.4548 963.0
32.5216 948.0
32.5885 908.0
32.6553 917.0
32.7222 760.0
32.789 770.0
32.8559 752.0
32.9227 711.0
32.9895 729.0
33.0564 693.0
33.1232 667.0
33.1901 635.0
33.2569 643.0
33.3238 606.0
33.3906 604.0
33.4575 639.0
33.5243 615.0
33.5911 650.0
33.658 637.0
33.7248 739.0
33.7917 681.0
33.8585 677.0
33.9254 677.0
33.9922 665.0
34.0591 545.0
34.1259 612.0
34.1928 647.0
34.2596 572.0
34.3264 631.0
34.3933 621.0
34.4601 628.0
34.527 632.0
34.5938 725.0
34.6607 667.0
34.7275 657.0
34.7944 637.0
34.8612 694.0
34.928 744.0
34.9949 787.0
35.0617 915.0
35.1286 1034.0
35.1954 1317.0
35.2623 1554.0
35.3291 1708.0
35.396 1532.0
35.4628 1209.0
35.5297 979.0
35.5965 855.0
35.6633 691.0
35.7302 626.0
35.797 617.0
35.8639 509.0
35.9307 537.0
35.9976 537.0
36.0644 509.0
36.1313 448.0
36.1981 508.0
36.265 453.0
36.3318 443.0
36.3986 435.0
36.4655 449.0
36.5323 409.0
36.5992 389.0
36.666 396.0
36.7329 363.0
36.7997 394.0
36.8666 387.0
36.9334 344.0
37.0002 370.0
37.0671 387.0
37.1339 372.0
37.2008 408.0
37.2676 350.0
37.3345 404.0
37.4013 408.0
37.4682 434.0
37.535 397.0
37.6019 413.0
37.6687 362.0
37.7355 396.0
37.8024 393.0
37.8692 366.0
37.9361 367.0
38.0029 373.0
38.0698 425.0
38.1366 396.0
38.2035 400.0
38.2703 429.0
38.3371 384.0
38.404 341.0
38.4708 311.0
38.5377 319.0
38.6045 331.0
38.6714 364.0
38.7382 345.0
38.8051 369.0
38.8719 311.0
38.9388 329.0
39.0056 316.0
39.0724 328.0
39.1393 304.0
39.2061 334.0
39.273 361.0
39.3398 338.0
39.4067 354.0
39.4735 342.0
39.5404 310.0
39.6072 332.0
39.6741 335.0
39.7409 337.0
39.8077 337.0
39.8746 337.0
39.9414 340.0
40.0083 368.0
40.0751 355.0
40.142 338.0
40.2088 291.0
40.2757 332.0
40.3425 364.0
40.4093 295.0
40.4762 325.0
40.543 342.0
40.6099 328.0
40.6767 346.0
40.7436 349.0
40.8104 336.0
40.8773 352.0
40.9441 316.0
41.011 324.0
41.0778 305.0
41.1446 302.0
41.2115 305.0
41.2783 339.0
41.3452 338.0
41.412 330.0
41.4789 344.0
41.5457 340.0
41.6126 364.0
41.6794 368.0
41.7462 304.0
41.8131 366.0
41.8799 366.0
41.9468 366.0
42.0136 353.0
42.0805 354.0
42.1473 336.0
42.2142 365.0
42.281 380.0
42.3479 366.0
42.4147 349.0
42.4815 353.0
42.5484 363.0
42.6152 410.0
42.6821 346.0
42.7489 352.0
42.8158 368.0
42.8826 372.0
42.9495 397.0
43.0163 336.0
43.0831 330.0
43.15 393.0
43.2168 357.0
43.2837 380.0
43.3505 361.0
43.4174 368.0
43.4842 352.0
43.5511 360.0
43.6179 385.0
43.6848 425.0
43.7516 367.0
43.8184 357.0
43.8853 362.0
43.9521 396.0
44.019 337.0
44.0858 335.0
44.1527 348.0
44.2195 353.0
44.2864 340.0
44.3532 342.0
44.4201 382.0
44.4869 367.0
44.5537 378.0
44.6206 377.0
44.6874 379.0
44.7543 378.0
44.8211 353.0
44.888 366.0
44.9548 395.0
45.0217 356.0
45.0885 360.0
45.1553 356.0
45.2222 381.0
45.289 347.0
45.3559 332.0
45.4227 346.0
45.4896 320.0
45.5564 352.0
45.6233 367.0
45.6901 328.0
45.757 336.0
45.8238 361.0
45.8906 358.0
45.9575 365.0
46.0243 372.0
46.0912 358.0
46.158 340.0
46.2249 368.0
46.2917 346.0
46.3586 367.0
46.4254 360.0
46.4922 363.0
46.5591 350.0
46.6259 332.0
46.6928 380.0
46.7596 362.0
46.8265 360.0
46.8933 357.0
46.9602 364.0
47.027 375.0
47.0939 362.0
47.1607 378.0
47.2275 342.0
47.2944 373.0
47.3612 369.0
47.4281 381.0
47.4949 372.0
47.5618 342.0
47.6286 357.0
47.6955 379.0
47.7623 439.0
47.8291 369.0
47.896 368.0
47.9628 411.0
48.0297 354.0
48.0965 384.0
48.1634 396.0
48.2302 402.0
48.2971 403.0
48.3639 372.0
48.4308 423.0
48.4976 426.0
48.5644 420.0
48.6313 438.0
48.6981 433.0
48.765 407.0
48.8318 458.0
48.8987 460.0
48.9655 423.0
49.0324 458.0
49.0992 446.0
49.1661 467.0
49.2329 497.0
49.2997 507.0
49.3666 455.0
49.4334 512.0
49.5003 522.0
49.5671 537.0
49.634 525.0
49.7008 534.0
49.7677 563.0
49.8345 574.0
49.9013 578.0
49.9682 646.0
50.035 613.0
50.1019 739.0
50.1687 719.0
50.2356 774.0
50.3024 871.0
50.3693 978.0
50.4361 1100.0
50.503 1205.0
50.5698 1435.0
50.6366 1668.0
50.7035 1999.0
50.7703 2102.0
50.8372 2250.0
50.904 2193.0
50.9709 1897.0
51.0377 1751.0
51.1046 1353.0
51.1714 1190.0
51.2382 1009.0
51.3051 785.0
51.3719 742.0
51.4388 679.0
51.5056 605.0
51.5725 611.0
51.6393 576.0
51.7062 538.0
51.773 495.0
51.8399 504.0
51.9067 511.0
51.9735 519.0
52.0404 476.0
52.1072 443.0
52.1741 493.0
52.2409 457.0
52.3078 432.0
52.3746 395.0
52.4415 401.0
52.5083 418.0
52.5751 460.0
52.642 377.0
52.7088 441.0
52.7757 409.0
52.8425 388.0
52.9094 386.0
52.9762 393.0
53.0431 388.0
53.1099 387.0
53.1768 380.0
53.2436 397.0
53.3104 381.0
53.3773 366.0
53.4441 389.0
53.511 396.0
53.5778 392.0
53.6447 386.0
53.7115 347.0
53.7784 345.0
53.8452 368.0
53.9121 338.0
53.9789 366.0
54.0457 375.0
54.1126 402.0
54.1794 360.0
54.2463 341.0
54.3131 331.0
54.38 367.0
54.4468 371.0
54.5137 373.0
54.5805 354.0
54.6473 381.0
54.7142 355.0
54.781 348.0
54.8479 317.0
54.9147 372.0
54.9816 345.0
55.0484 346.0
55.1153 363.0
55.1821 377.0
55.249 319.0
55.3158 344.0
55.3826 351.0
55.4495 347.0
55.5163 354.0
55.5832 362.0
55.65 355.0
55.7169 326.0
55.7837 368.0
55.8506 363.0
55.9174 366.0
55.9842 389.0
56.0511 351.0
56.1179 376.0
56.1848 382.0
56.2516 346.0
56.3185 350.0
56.3853 340.0
56.4522 354.0
56.519 357.0
56.5859 378.0
56.6527 364.0
56.7195 330.0
56.7864 357.0
56.8532 372.0
56.9201 379.0
56.9869 352.0
57.0538 360.0
57.1206 367.0
57.1875 368.0
57.2543 361.0
57.3212 358.0
57.388 400.0
57.4548 340.0
57.5217 413.0
57.5885 382.0
57.6554 371.0
57.7222 409.0
57.7891 393.0
57.8559 386.0
57.9228 366.0
57.9896 400.0
58.0564 360.0
58.1233 376.0
58.1901 365.0
58.257 414.0
58.3238 351.0
58.3907 400.0
58.4575 397.0
58.5244 415.0
58.5912 391.0
58.6581 388.0
58.7249 373.0
58.7917 424.0
58.8586 456.0
58.9254 453.0
58.9923 440.0
59.0591 453.0
59.126 474.0
59.1928 454.0
59.2597 474.0
59.3265 524.0
59.3933 542.0
59.4602 543.0
59.527 513.0
59.5939 554.0
59.6607 581.0
59.7276 596.0
59.7944 638.0
59.8613 670.0
59.9281 741.0
59.995 774.0
60.0618 872.0
60.1286 930.0
60.1955 1097.0
60.2623 1251.0
60.3292 1407.0
60.396 1466.0
60.4629 1488.0
60.5297 1458.0
60.5966 1293.0
60.6634 1154.0
60.7302 981.0
60.7971 934.0
60.8639 761.0
60.9308 707.0
60.9976 674.0
61.0645 558.0
61.1313 557.0
61.1982 527.0
61.265 498.0
61.3319 461.0
61.3987 459.0
61.4655 404.0
61.5324 403.0
61.5992 403.0
61.6661 363.0
61.7329 355.0
61.7998 393.0
61.8666 393.0
61.9335 348.0
62.0003 384.0
62.0672 354.0
62.134 355.0
62.2008 380.0
62.2677 382.0
62.3345 365.0
62.4014 345.0
62.4682 383.0
62.5351 357.0
62.6019 386.0
62.6688 354.0
62.7356 398.0
62.8024 377.0
62.8693 396.0
62.9361 377.0
63.003 412.0
63.0698 381.0
63.1367 431.0
63.2035 418.0
63.2704 450.0
63.3372 467.0
63.4041 450.0
63.4709 501.0
63.5377 465.0
63.6046 419.0
63.6714 415.0
63.7383 404.0
63.8051 403.0
63.872 398.0
63.9388 363.0
64.0057 328.0
64.0725 324.0
64.1393 321.0
64.2062 300.0
64.273 263.0
64.3399 274.0
64.4067 319.0
64.4736 276.0
64.5404 287.0
64.6073 285.0
64.6741 267.0
64.741 310.0
64.8078 310.0
64.8746 269.0
64.9415 275.0
65.0083 272.0
65.0752 271.0
65.142 294.0
65.2089 300.0
65.2757 250.0
65.3426 311.0
65.4094 303.0
65.4762 274.0
65.5431 269.0
65.6099 294.0
65.6768 280.0
65.7436 253.0
65.8105 319.0
65.8773 277.0
65.9442 302.0
66.011 243.0
66.0779 284.0
66.1447 276.0
66.2115 302.0
66.2784 299.0
66.3452 270.0
66.4121 287.0
66.4789 277.0
66.5458 273.0
66.6126 259.0
66.6795 287.0
66.7463 284.0
66.8132 270.0
66.88 259.0
66.9468 270.0
67.0137 256.0
67.0805 302.0
67.1474 272.0
67.2142 286.0
67.2811 294.0
67.3479 279.0
67.4148 283.0
67.4816 279.0
67.5484 275.0
67.6153 266.0
67.6821 278.0
67.749 266.0
67.8158 275.0
67.8827 282.0
67.9495 254.0
68.0164 239.0
68.0832 270.0
68.1501 264.0
68.2169 282.0
68.2837 256.0
68.3506 238.0
68.4174 283.0
68.4843 285.0
68.5511 254.0
68.618 283.0
68.6848 257.0
68.7517 241.0
68.8185 252.0
68.8853 262.0
68.9522 276.0
69.019 274.0
69.0859 283.0
69.1527 271.0
69.2196 264.0
69.2864 253.0
69.3533 270.0
69.4201 271.0
69.487 228.0
69.5538 276.0
69.6206 273.0
69.6875 274.0
69.7543 292.0
69.8212 230.0
69.888 272.0
69.9549 264.0
70.0217 264.0
70.0886 267.0
70.1554 263.0
70.2222 264.0
70.2891 254.0
70.3559 288.0
70.4228 251.0
70.4896 256.0
70.5565 283.0
70.6233 294.0
70.6902 255.0
70.757 271.0
70.8239 260.0
70.8907 264.0
70.9575 243.0
71.0244 274.0
71.0912 286.0
71.1581 250.0
71.2249 245.0
71.2918 273.0
71.3586 229.0
71.4255 237.0
71.4923 243.0
71.5592 267.0
71.626 241.0
71.6928 266.0
71.7597 214.0
71.8265 280.0
71.8934 239.0
71.9602 252.0
72.0271 250.0
72.0939 247.0
72.1608 247.0
72.2276 298.0
72.2944 225.0
72.3613 256.0
72.4281 275.0
72.495 261.0
72.5618 268.0
72.6287 253.0
72.6955 247.0
72.7624 244.0
72.8292 268.0
72.8961 259.0
72.9629 231.0
73.0297 276.0
73.0966 273.0
73.1634 259.0
73.2303 303.0
73.2971 258.0
73.364 271.0
73.4308 257.0
73.4977 254.0
73.5645 278.0
73.6313 273.0
73.6982 262.0
73.765 257.0
73.8319 304.0
73.8987 257.0
73.9656 263.0
74.0324 253.0
74.0993 302.0
74.1661 253.0
74.233 306.0
74.2998 299.0
74.3666 293.0
74.4335 319.0
74.5003 344.0
74.5672 381.0
74.634 348.0
74.7009 416.0
74.7677 406.0
74.8346 382.0
74.9014 385.0
74.9683 364.0
75.0351 373.0
75.1019 314.0
75.1688 314.0
75.2356 263.0
75.3025 286.0
75.3693 262.0
75.4362 268.0
75.503 251.0
75.5699 275.0
75.6367 242.0
75.7035 247.0
75.7704 230.0
75.8372 247.0
75.9041 238.0
75.9709 221.0
76.0378 222.0
76.1046 236.0
76.1715 236.0
76.2383 246.0
76.3052 247.0
76.372 236.0
76.4388 252.0
76.5057 214.0
76.5725 230.0
76.6394 230.0
76.7062 184.0
76.7731 242.0
76.8399 211.0
76.9068 194.0
76.9736 235.0
77.0404 233.0
77.1073 213.0
77.1741 204.0
77.241 233.0
77.3078 223.0
77.3747 215.0
77.4415 237.0
77.5084 238.0
77.5752 222.0
77.6421 223.0
77.7089 237.0
77.7757 246.0
77.8426 225.0
77.9094 216.0
77.9763 194.0
78.0431 214.0
78.11 230.0
78.1768 230.0
78.2437 222.0
78.3105 211.0
78.3773 198.0
78.4442 221.0
78.511 238.0
78.5779 232.0
78.6447 200.0
78.7116 226.0
78.7784 237.0
78.8453 204.0
78.9121 212.0
78.979 219.0
79.0458 217.0
79.1126 213.0
79.1795 227.0
79.2463 209.0
79.3132 241.0
79.38 205.0
79.4469 246.0
79.5137 223.0
79.5806 226.0
79.6474 238.0
79.7143 235.0
79.7811 208.0
79.8479 247.0
79.9148 269.0
79.9816 225.0
80.0485 230.0
80.1153 245.0
80.1822 235.0
80.249 216.0
80.3159 217.0
80.3827 188.0
80.4495 233.0
80.5164 203.0
80.5832 236.0
80.6501 213.0
80.7169 233.0
80.7838 246.0
80.8506 215.0
80.9175 240.0
80.9843 219.0
81.0512 244.0
81.118 225.0
81.1848 242.0
81.2517 216.0
81.3185 240.0
81.3854 297.0
81.4522 223.0
81.5191 250.0
81.5859 275.0
81.6528 263.0
81.7196 254.0
81.7864 271.0
81.8533 255.0
81.9201 280.0
81.987 277.0
82.0538 274.0
82.1207 295.0
82.1875 315.0
82.2544 297.0
82.3212 325.0
82.3881 364.0
82.4549 364.0
82.5217 355.0
82.5886 379.0
82.6554 414.0
82.7223 409.0
82.7891 443.0
82.856 477.0
82.9228 420.0
82.9897 422.0
83.0565 392.0
83.1233 430.0
83.1902 354.0
83.257 349.0
83.3239 303.0
83.3907 306.0
83.4576 289.0
83.5244 304.0
83.5913 266.0
83.6581 268.0
83.725 299.0
83.7918 248.0
83.8586 242.0
83.9255 250.0
83.9923 238.0
84.0592 224.0
84.126 236.0
84.1929 204.0
84.2597 238.0
84.3266 239.0
84.3934 228.0
84.4603 215.0
84.5271 252.0
84.5939 261.0
84.6608 256.0
84.7276 231.0
84.7945 233.0
84.8613 275.0
84.9282 305.0
84.995 264.0
85.0619 262.0
85.1287 286.0
85.1955 283.0
85.2624 324.0
85.3292 300.0
85.3961 340.0
85.4629 320.0
85.5298 311.0
85.5966 360.0
85.6635 278.0
85.7303 320.0
85.7972 328.0
85.864 283.0
85.9308 271.0
85.9977 262.0
86.0645 266.0
86.1314 237.0
86.1982 213.0
86.2651 199.0
86.3319 192.0
86.3988 235.0
86.4656 213.0
86.5324 170.0
86.5993 204.0
86.6661 166.0
86.733 201.0
86.7998 186.0
86.8667 203.0
86.9335 179.0
87.0004 177.0
87.0672 184.0
87.1341 175.0
87.2009 210.0
87.2677 196.0
87.3346 188.0
87.4014 191.0
87.4683 166.0
87.5351 159.0
87.602 192.0
87.6688 177.0
87.7357 188.0
87.8025 168.0
87.8693 189.0
87.9362 167.0
88.003 150.0
88.0699 182.0
88.1367 160.0
88.2036 193.0
88.2704 178.0
88.3373 188.0
88.4041 164.0
88.471 144.0
88.5378 193.0
88.6046 166.0
88.6715 188.0
88.7383 170.0
88.8052 179.0
88.872 157.0
88.9389 197.0
89.0057 155.0
89.0726 153.0
89.1394 204.0
89.2063 173.0
89.2731 166.0
89.3399 149.0
89.4068 179.0
89.4736 163.0
89.5405 174.0
89.6073 163.0
89.6742 147.0
89.741 169.0
89.8079 177.0
89.8747 173.0
89.9415 152.0