File: code/XRD_Analysis/20241023_XRD_Analsis/20241023_ZnZrOx_20241016_calc.xy
4.98146 1005.0
5.0483 993.0
5.11515 982.0
5.18199 926.0
5.24884 894.0
5.31568 946.0
5.38253 948.0
5.44937 892.0
5.51622 862.0
5.58306 773.0
5.64991 838.0
5.71675 853.0
5.7836 812.0
5.85044 799.0
5.91729 799.0
5.98413 768.0
6.05098 742.0
6.11782 778.0
6.18467 756.0
6.25151 758.0
6.31836 728.0
6.3852 698.0
6.45205 747.0
6.51889 760.0
6.58574 776.0
6.65258 686.0
6.71943 716.0
6.78627 693.0
6.85312 662.0
6.91996 669.0
6.98681 679.0
7.05365 688.0
7.1205 652.0
7.18734 641.0
7.25419 597.0
7.32103 631.0
7.38788 604.0
7.45472 645.0
7.52157 589.0
7.58841 610.0
7.65526 657.0
7.7221 592.0
7.78895 587.0
7.85579 616.0
7.92264 560.0
7.98948 557.0
8.05633 660.0
8.12317 557.0
8.19002 584.0
8.25686 578.0
8.32371 542.0
8.39055 552.0
8.4574 572.0
8.52424 517.0
8.59109 500.0
8.65793 555.0
8.72478 549.0
8.79162 518.0
8.85847 538.0
8.92532 521.0
8.99216 471.0
9.05901 520.0
9.12585 528.0
9.1927 491.0
9.25954 514.0
9.32639 497.0
9.39323 521.0
9.46008 430.0
9.52692 507.0
9.59377 458.0
9.66061 488.0
9.72746 493.0
9.7943 474.0
9.86115 443.0
9.92799 453.0
9.99484 467.0
10.0617 447.0
10.1285 459.0
10.1954 389.0
10.2622 427.0
10.3291 438.0
10.3959 463.0
10.4628 424.0
10.5296 434.0
10.5964 427.0
10.6633 446.0
10.7301 418.0
10.797 364.0
10.8638 384.0
10.9307 445.0
10.9975 376.0
11.0644 402.0
11.1312 402.0
11.198 385.0
11.2649 398.0
11.3317 402.0
11.3986 362.0
11.4654 379.0
11.5323 383.0
11.5991 369.0
11.666 339.0
11.7328 382.0
11.7997 400.0
11.8665 357.0
11.9333 316.0
12.0002 346.0
12.067 377.0
12.1339 365.0
12.2007 319.0
12.2676 364.0
12.3344 378.0
12.4013 375.0
12.4681 353.0
12.5349 337.0
12.6018 313.0
12.6686 323.0
12.7355 319.0
12.8023 338.0
12.8692 326.0
12.936 349.0
13.0029 320.0
13.0697 320.0
13.1366 318.0
13.2034 314.0
13.2702 301.0
13.3371 317.0
13.4039 263.0
13.4708 317.0
13.5376 306.0
13.6045 293.0
13.6713 307.0
13.7382 325.0
13.805 297.0
13.8719 311.0
13.9387 284.0
14.0055 305.0
14.0724 308.0
14.1392 320.0
14.2061 271.0
14.2729 282.0
14.3398 231.0
14.4066 286.0
14.4735 270.0
14.5403 261.0
14.6071 289.0
14.674 308.0
14.7408 263.0
14.8077 274.0
14.8745 335.0
14.9414 293.0
15.0082 255.0
15.0751 247.0
15.1419 264.0
15.2088 284.0
15.2756 242.0
15.3424 245.0
15.4093 260.0
15.4761 247.0
15.543 270.0
15.6098 248.0
15.6767 255.0
15.7435 231.0
15.8104 227.0
15.8772 277.0
15.944 240.0
16.0109 228.0
16.0777 261.0
16.1446 225.0
16.2114 248.0
16.2783 248.0
16.3451 262.0
16.412 254.0
16.4788 246.0
16.5457 253.0
16.6125 264.0
16.6793 260.0
16.7462 242.0
16.813 241.0
16.8799 259.0
16.9467 228.0
17.0136 276.0
17.0804 217.0
17.1473 224.0
17.2141 273.0
17.2809 226.0
17.3478 217.0
17.4146 231.0
17.4815 231.0
17.5483 223.0
17.6152 242.0
17.682 233.0
17.7489 259.0
17.8157 241.0
17.8826 239.0
17.9494 231.0
18.0162 231.0
18.0831 213.0
18.1499 217.0
18.2168 231.0
18.2836 274.0
18.3505 220.0
18.4173 224.0
18.4842 223.0
18.551 216.0
18.6179 221.0
18.6847 239.0
18.7515 231.0
18.8184 236.0
18.8852 190.0
18.9521 222.0
19.0189 239.0
19.0858 205.0
19.1526 228.0
19.2195 219.0
19.2863 239.0
19.3531 222.0
19.42 182.0
19.4868 226.0
19.5537 215.0
19.6205 236.0
19.6874 205.0
19.7542 199.0
19.8211 204.0
19.8879 184.0
19.9548 240.0
20.0216 220.0
20.0884 237.0
20.1553 205.0
20.2221 232.0
20.289 197.0
20.3558 225.0
20.4227 207.0
20.4895 219.0
20.5564 216.0
20.6232 184.0
20.69 216.0
20.7569 219.0
20.8237 210.0
20.8906 227.0
20.9574 237.0
21.0243 248.0
21.0911 209.0
21.158 233.0
21.2248 195.0
21.2917 206.0
21.3585 207.0
21.4253 221.0
21.4922 191.0
21.559 226.0
21.6259 192.0
21.6927 225.0
21.7596 223.0
21.8264 193.0
21.8933 212.0
21.9601 198.0
22.0269 196.0
22.0938 215.0
22.1606 236.0
22.2275 217.0
22.2943 211.0
22.3612 216.0
22.428 228.0
22.4949 206.0
22.5617 223.0
22.6286 201.0
22.6954 194.0
22.7622 210.0
22.8291 222.0
22.8959 217.0
22.9628 190.0
23.0296 186.0
23.0965 185.0
23.1633 214.0
23.2302 243.0
23.297 212.0
23.3639 201.0
23.4307 222.0
23.4975 211.0
23.5644 204.0
23.6312 196.0
23.6981 198.0
23.7649 228.0
23.8318 212.0
23.8986 216.0
23.9655 212.0
24.0323 217.0
24.0991 227.0
24.166 214.0
24.2328 208.0
24.2997 213.0
24.3665 228.0
24.4334 251.0
24.5002 210.0
24.5671 227.0
24.6339 215.0
24.7008 230.0
24.7676 200.0
24.8344 214.0
24.9013 225.0
24.9681 215.0
25.035 247.0
25.1018 205.0
25.1687 208.0
25.2355 209.0
25.3024 204.0
25.3692 204.0
25.436 241.0
25.5029 222.0
25.5697 248.0
25.6366 232.0
25.7034 224.0
25.7703 228.0
25.8371 252.0
25.904 257.0
25.9708 207.0
26.0377 231.0
26.1045 215.0
26.1713 223.0
26.2382 230.0
26.305 240.0
26.3719 231.0
26.4387 245.0
26.5056 223.0
26.5724 252.0
26.6393 224.0
26.7061 243.0
26.773 261.0
26.8398 268.0
26.9066 237.0
26.9735 267.0
27.0403 258.0
27.1072 233.0
27.174 282.0
27.2409 237.0
27.3077 288.0
27.3746 272.0
27.4414 292.0
27.5082 299.0
27.5751 276.0
27.6419 275.0
27.7088 279.0
27.7756 307.0
27.8425 297.0
27.9093 297.0
27.9762 285.0
28.043 324.0
28.1099 290.0
28.1767 372.0
28.2435 378.0
28.3104 388.0
28.3772 378.0
28.4441 392.0
28.5109 393.0
28.5778 413.0
28.6446 427.0
28.7115 453.0
28.7783 529.0
28.8451 526.0
28.912 571.0
28.9788 563.0
29.0457 642.0
29.1125 705.0
29.1794 797.0
29.2462 846.0
29.3131 878.0
29.3799 976.0
29.4468 1048.0
29.5136 1096.0
29.5804 1199.0
29.6473 1340.0
29.7141 1419.0
29.781 1597.0
29.8478 1783.0
29.9147 1990.0
29.9815 2137.0
30.0484 2531.0
30.1152 2974.0
30.182 3750.0
30.2489 5019.0
30.3157 7232.0
30.3826 10347.0
30.4494 15309.0
30.5163 18615.0
30.5831 17318.0
30.65 12448.0
30.7168 7733.0
30.7837 4901.0
30.8505 3422.0
30.9173 2471.0
30.9842 2060.0
31.051 1726.0
31.1179 1416.0
31.1847 1219.0
31.2516 1112.0
31.3184 958.0
31.3853 893.0
31.4521 792.0
31.519 727.0
31.5858 649.0
31.6526 576.0
31.7195 590.0
31.7863 557.0
31.8532 463.0
31.92 418.0
31.9869 412.0
32.0537 441.0
32.1206 394.0
32.1874 366.0
32.2542 344.0
32.3211 328.0
32.3879 340.0
32.4548 341.0
32.5216 321.0
32.5885 324.0
32.6553 332.0
32.7222 268.0
32.789 293.0
32.8559 291.0
32.9227 277.0
32.9895 291.0
33.0564 263.0
33.1232 279.0
33.1901 277.0
33.2569 242.0
33.3238 292.0
33.3906 279.0
33.4575 285.0
33.5243 291.0
33.5911 285.0
33.658 318.0
33.7248 313.0
33.7917 338.0
33.8585 357.0
33.9254 345.0
33.9922 292.0
34.0591 370.0
34.1259 339.0
34.1928 392.0
34.2596 403.0
34.3264 380.0
34.3933 436.0
34.4601 460.0
34.527 507.0
34.5938 487.0
34.6607 501.0
34.7275 615.0
34.7944 637.0
34.8612 669.0
34.928 764.0
34.9949 869.0
35.0617 1068.0
35.1286 1285.0
35.1954 1845.0
35.2623 2724.0
35.3291 3697.0
35.396 4415.0
35.4628 3859.0
35.5297 2711.0
35.5965 1607.0
35.6633 1035.0
35.7302 760.0
35.797 595.0
35.8639 528.0
35.9307 448.0
35.9976 358.0
36.0644 376.0
36.1313 338.0
36.1981 297.0
36.265 314.0
36.3318 290.0
36.3986 286.0
36.4655 285.0
36.5323 263.0
36.5992 229.0
36.666 235.0
36.7329 221.0
36.7997 185.0
36.8666 207.0
36.9334 227.0
37.0002 221.0
37.0671 200.0
37.1339 183.0
37.2008 207.0
37.2676 175.0
37.3345 185.0
37.4013 189.0
37.4682 195.0
37.535 176.0
37.6019 201.0
37.6687 163.0
37.7355 150.0
37.8024 181.0
37.8692 184.0
37.9361 182.0
38.0029 153.0
38.0698 166.0
38.1366 184.0
38.2035 158.0
38.2703 165.0
38.3371 152.0
38.404 179.0
38.4708 170.0
38.5377 164.0
38.6045 161.0
38.6714 160.0
38.7382 154.0
38.8051 170.0
38.8719 179.0
38.9388 160.0
39.0056 154.0
39.0724 184.0
39.1393 174.0
39.2061 147.0
39.273 141.0
39.3398 168.0
39.4067 176.0
39.4735 157.0
39.5404 170.0
39.6072 176.0
39.6741 178.0
39.7409 170.0
39.8077 170.0
39.8746 179.0
39.9414 191.0
40.0083 170.0
40.0751 168.0
40.142 150.0
40.2088 175.0
40.2757 167.0
40.3425 172.0
40.4093 167.0
40.4762 164.0
40.543 176.0
40.6099 160.0
40.6767 189.0
40.7436 185.0
40.8104 190.0
40.8773 174.0
40.9441 157.0
41.011 157.0
41.0778 158.0
41.1446 180.0
41.2115 173.0
41.2783 193.0
41.3452 160.0
41.412 181.0
41.4789 179.0
41.5457 186.0
41.6126 180.0
41.6794 173.0
41.7462 170.0
41.8131 167.0
41.8799 191.0
41.9468 173.0
42.0136 206.0
42.0805 182.0
42.1473 212.0
42.2142 173.0
42.281 216.0
42.3479 180.0
42.4147 196.0
42.4815 168.0
42.5484 195.0
42.6152 183.0
42.6821 189.0
42.7489 197.0
42.8158 192.0
42.8826 192.0
42.9495 194.0
43.0163 169.0
43.0831 193.0
43.15 198.0
43.2168 190.0
43.2837 208.0
43.3505 233.0
43.4174 168.0
43.4842 170.0
43.5511 200.0
43.6179 206.0
43.6848 204.0
43.7516 211.0
43.8184 203.0
43.8853 215.0
43.9521 192.0
44.019 220.0
44.0858 195.0
44.1527 206.0
44.2195 216.0
44.2864 214.0
44.3532 191.0
44.4201 198.0
44.4869 207.0
44.5537 207.0
44.6206 225.0
44.6874 196.0
44.7543 173.0
44.8211 207.0
44.888 180.0
44.9548 230.0
45.0217 212.0
45.0885 186.0
45.1553 203.0
45.2222 206.0
45.289 192.0
45.3559 217.0
45.4227 208.0
45.4896 210.0
45.5564 235.0
45.6233 217.0
45.6901 203.0
45.757 211.0
45.8238 211.0
45.8906 214.0
45.9575 193.0
46.0243 210.0
46.0912 210.0
46.158 253.0
46.2249 232.0
46.2917 224.0
46.3586 225.0
46.4254 222.0
46.4922 270.0
46.5591 203.0
46.6259 209.0
46.6928 240.0
46.7596 259.0
46.8265 241.0
46.8933 221.0
46.9602 274.0
47.027 244.0
47.0939 238.0
47.1607 255.0
47.2275 236.0
47.2944 181.0
47.3612 247.0
47.4281 259.0
47.4949 251.0
47.5618 254.0
47.6286 239.0
47.6955 280.0
47.7623 289.0
47.8291 293.0
47.896 277.0
47.9628 264.0
48.0297 298.0
48.0965 300.0
48.1634 288.0
48.2302 306.0
48.2971 292.0
48.3639 289.0
48.4308 304.0
48.4976 347.0
48.5644 375.0
48.6313 328.0
48.6981 410.0
48.765 366.0
48.8318 338.0
48.8987 361.0
48.9655 383.0
49.0324 412.0
49.0992 425.0
49.1661 510.0
49.2329 477.0
49.2997 487.0
49.3666 505.0
49.4334 522.0
49.5003 535.0
49.5671 609.0
49.634 588.0
49.7008 649.0
49.7677 716.0
49.8345 734.0
49.9013 815.0
49.9682 848.0
50.035 933.0
50.1019 978.0
50.1687 1152.0
50.2356 1198.0
50.3024 1354.0
50.3693 1524.0
50.4361 1769.0
50.503 2054.0
50.5698 2456.0
50.6366 3006.0
50.7035 3775.0
50.7703 4812.0
50.8372 6017.0
50.904 6510.0
50.9709 6558.0
51.0377 5462.0
51.1046 4415.0
51.1714 3316.0
51.2382 2550.0
51.3051 1823.0
51.3719 1469.0
51.4388 1118.0
51.5056 987.0
51.5725 869.0
51.6393 676.0
51.7062 634.0
51.773 607.0
51.8399 559.0
51.9067 505.0
51.9735 462.0
52.0404 427.0
52.1072 384.0
52.1741 406.0
52.2409 360.0
52.3078 365.0
52.3746 300.0
52.4415 295.0
52.5083 341.0
52.5751 277.0
52.642 304.0
52.7088 303.0
52.7757 273.0
52.8425 267.0
52.9094 247.0
52.9762 280.0
53.0431 272.0
53.1099 252.0
53.1768 213.0
53.2436 248.0
53.3104 261.0
53.3773 227.0
53.4441 227.0
53.511 240.0
53.5778 244.0
53.6447 246.0
53.7115 209.0
53.7784 188.0
53.8452 237.0
53.9121 228.0
53.9789 193.0
54.0457 222.0
54.1126 226.0
54.1794 253.0
54.2463 216.0
54.3131 207.0
54.38 237.0
54.4468 207.0
54.5137 216.0
54.5805 233.0
54.6473 255.0
54.7142 199.0
54.781 211.0
54.8479 210.0
54.9147 192.0
54.9816 217.0
55.0484 214.0
55.1153 244.0
55.1821 199.0
55.249 212.0
55.3158 204.0
55.3826 207.0
55.4495 227.0
55.5163 226.0
55.5832 214.0
55.65 258.0
55.7169 216.0
55.7837 246.0
55.8506 245.0
55.9174 244.0
55.9842 220.0
56.0511 214.0
56.1179 242.0
56.1848 231.0
56.2516 232.0
56.3185 223.0
56.3853 254.0
56.4522 244.0
56.519 258.0
56.5859 225.0
56.6527 222.0
56.7195 268.0
56.7864 250.0
56.8532 298.0
56.9201 269.0
56.9869 266.0
57.0538 243.0
57.1206 260.0
57.1875 270.0
57.2543 275.0
57.3212 255.0
57.388 286.0
57.4548 264.0
57.5217 273.0
57.5885 291.0
57.6554 297.0
57.7222 308.0
57.7891 322.0
57.8559 313.0
57.9228 319.0
57.9896 325.0
58.0564 318.0
58.1233 288.0
58.1901 310.0
58.257 354.0
58.3238 362.0
58.3907 320.0
58.4575 363.0
58.5244 341.0
58.5912 385.0
58.6581 377.0
58.7249 383.0
58.7917 450.0
58.8586 442.0
58.9254 457.0
58.9923 476.0
59.0591 474.0
59.126 482.0
59.1928 548.0
59.2597 538.0
59.3265 554.0
59.3933 633.0
59.4602 667.0
59.527 622.0
59.5939 720.0
59.6607 748.0
59.7276 904.0
59.7944 846.0
59.8613 1041.0
59.9281 1087.0
59.995 1203.0
60.0618 1370.0
60.1286 1576.0
60.1955 1965.0
60.2623 2192.0
60.3292 2769.0
60.396 3292.0
60.4629 3836.0
60.5297 4148.0
60.5966 4152.0
60.6634 3574.0
60.7302 2950.0
60.7971 2372.0
60.8639 1791.0
60.9308 1495.0
60.9976 1166.0
61.0645 967.0
61.1313 793.0
61.1982 665.0
61.265 613.0
61.3319 544.0
61.3987 537.0
61.4655 491.0
61.5324 447.0
61.5992 446.0
61.6661 419.0
61.7329 411.0
61.7998 369.0
61.8666 420.0
61.9335 347.0
62.0003 364.0
62.0672 353.0
62.134 333.0
62.2008 338.0
62.2677 331.0
62.3345 293.0
62.4014 357.0
62.4682 318.0
62.5351 311.0
62.6019 348.0
62.6688 354.0
62.7356 318.0
62.8024 342.0
62.8693 408.0
62.9361 392.0
63.003 450.0
63.0698 448.0
63.1367 482.0
63.2035 536.0
63.2704 564.0
63.3372 631.0
63.4041 747.0
63.4709 795.0
63.5377 799.0
63.6046 793.0
63.6714 732.0
63.7383 659.0
63.8051 550.0
63.872 451.0
63.9388 402.0
64.0057 427.0
64.0725 350.0
64.1393 304.0
64.2062 282.0
64.273 282.0
64.3399 254.0
64.4067 278.0
64.4736 266.0
64.5404 262.0
64.6073 215.0
64.6741 219.0
64.741 210.0
64.8078 220.0
64.8746 230.0
64.9415 191.0
65.0083 175.0
65.0752 210.0
65.142 212.0
65.2089 181.0
65.2757 175.0
65.3426 168.0
65.4094 192.0
65.4762 151.0
65.5431 194.0
65.6099 175.0
65.6768 169.0
65.7436 175.0
65.8105 200.0
65.8773 191.0
65.9442 162.0
66.011 181.0
66.0779 174.0
66.1447 167.0
66.2115 153.0
66.2784 174.0
66.3452 184.0
66.4121 151.0
66.4789 164.0
66.5458 182.0
66.6126 149.0
66.6795 165.0
66.7463 166.0
66.8132 173.0
66.88 180.0
66.9468 161.0
67.0137 157.0
67.0805 162.0
67.1474 150.0
67.2142 164.0
67.2811 169.0
67.3479 155.0
67.4148 157.0
67.4816 157.0
67.5484 161.0
67.6153 160.0
67.6821 143.0
67.749 158.0
67.8158 152.0
67.8827 149.0
67.9495 138.0
68.0164 132.0
68.0832 146.0
68.1501 141.0
68.2169 150.0
68.2837 138.0
68.3506 131.0
68.4174 144.0
68.4843 147.0
68.5511 150.0
68.618 130.0
68.6848 118.0
68.7517 162.0
68.8185 130.0
68.8853 134.0
68.9522 143.0
69.019 123.0
69.0859 115.0
69.1527 139.0
69.2196 153.0
69.2864 137.0
69.3533 133.0
69.4201 136.0
69.487 121.0
69.5538 150.0
69.6206 128.0
69.6875 120.0
69.7543 145.0
69.8212 148.0
69.888 131.0
69.9549 114.0
70.0217 129.0
70.0886 144.0
70.1554 147.0
70.2222 154.0
70.2891 135.0
70.3559 150.0
70.4228 130.0
70.4896 105.0
70.5565 135.0
70.6233 145.0
70.6902 142.0
70.757 126.0
70.8239 153.0
70.8907 147.0
70.9575 133.0
71.0244 123.0
71.0912 142.0
71.1581 113.0
71.2249 147.0
71.2918 143.0
71.3586 143.0
71.4255 143.0
71.4923 119.0
71.5592 160.0
71.626 138.0
71.6928 134.0
71.7597 159.0
71.8265 139.0
71.8934 131.0
71.9602 147.0
72.0271 151.0
72.0939 126.0
72.1608 131.0
72.2276 133.0
72.2944 143.0
72.3613 143.0
72.4281 129.0
72.495 126.0
72.5618 168.0
72.6287 158.0
72.6955 157.0
72.7624 144.0
72.8292 131.0
72.8961 172.0
72.9629 158.0
73.0297 176.0
73.0966 154.0
73.1634 146.0
73.2303 173.0
73.2971 158.0
73.364 210.0
73.4308 169.0
73.4977 191.0
73.5645 175.0
73.6313 188.0
73.6982 204.0
73.765 200.0
73.8319 211.0
73.8987 222.0
73.9656 245.0
74.0324 235.0
74.0993 253.0
74.1661 241.0
74.233 309.0
74.2998 300.0
74.3666 301.0
74.4335 363.0
74.5003 352.0
74.5672 389.0
74.634 533.0
74.7009 594.0
74.7677 627.0
74.8346 710.0
74.9014 668.0
74.9683 681.0
75.0351 639.0
75.1019 506.0
75.1688 459.0
75.2356 378.0
75.3025 278.0
75.3693 263.0
75.4362 240.0
75.503 199.0
75.5699 190.0
75.6367 184.0
75.7035 190.0
75.7704 182.0
75.8372 162.0
75.9041 164.0
75.9709 162.0
76.0378 173.0
76.1046 174.0
76.1715 158.0
76.2383 141.0
76.3052 163.0
76.372 151.0
76.4388 136.0
76.5057 147.0
76.5725 130.0
76.6394 133.0
76.7062 139.0
76.7731 121.0
76.8399 145.0
76.9068 149.0
76.9736 139.0
77.0404 148.0
77.1073 159.0
77.1741 132.0
77.241 148.0
77.3078 123.0
77.3747 127.0
77.4415 139.0
77.5084 155.0
77.5752 145.0
77.6421 142.0
77.7089 144.0
77.7757 138.0
77.8426 130.0
77.9094 158.0
77.9763 153.0
78.0431 125.0
78.11 152.0
78.1768 149.0
78.2437 145.0
78.3105 142.0
78.3773 158.0
78.4442 119.0
78.511 142.0
78.5779 145.0
78.6447 166.0
78.7116 144.0
78.7784 136.0
78.8453 137.0
78.9121 165.0
78.979 154.0
79.0458 149.0
79.1126 150.0
79.1795 136.0
79.2463 141.0
79.3132 150.0
79.38 157.0
79.4469 166.0
79.5137 170.0
79.5806 149.0
79.6474 174.0
79.7143 168.0
79.7811 167.0
79.8479 157.0
79.9148 162.0
79.9816 176.0
80.0485 166.0
80.1153 163.0
80.1822 175.0
80.249 177.0
80.3159 178.0
80.3827 193.0
80.4495 181.0
80.5164 198.0
80.5832 179.0
80.6501 188.0
80.7169 179.0
80.7838 198.0
80.8506 225.0
80.9175 232.0
80.9843 201.0
81.0512 205.0
81.118 230.0
81.1848 231.0
81.2517 242.0
81.3185 217.0
81.3854 232.0
81.4522 239.0
81.5191 263.0
81.5859 276.0
81.6528 294.0
81.7196 270.0
81.7864 326.0
81.8533 314.0
81.9201 311.0
81.987 356.0
82.0538 344.0
82.1207 358.0
82.1875 385.0
82.2544 460.0
82.3212 455.0
82.3881 512.0
82.4549 527.0
82.5217 602.0
82.5886 654.0
82.6554 731.0
82.7223 817.0
82.7891 893.0
82.856 910.0
82.9228 930.0
82.9897 962.0
83.0565 891.0
83.1233 847.0
83.1902 785.0
83.257 730.0
83.3239 682.0
83.3907 559.0
83.4576 506.0
83.5244 449.0
83.5913 381.0
83.6581 379.0
83.725 360.0
83.7918 329.0
83.8586 331.0
83.9255 324.0
83.9923 313.0
84.0592 305.0
84.126 303.0
84.1929 314.0
84.2597 300.0
84.3266 304.0
84.3934 283.0
84.4603 274.0
84.5271 290.0
84.5939 305.0
84.6608 310.0
84.7276 321.0
84.7945 329.0
84.8613 320.0
84.9282 331.0
84.995 367.0
85.0619 382.0
85.1287 389.0
85.1955 461.0
85.2624 482.0
85.3292 514.0
85.3961 521.0
85.4629 645.0
85.5298 653.0
85.5966 691.0
85.6635 690.0
85.7303 643.0
85.7972 591.0
85.864 578.0
85.9308 517.0
85.9977 460.0
86.0645 410.0
86.1314 319.0
86.1982 333.0
86.2651 277.0
86.3319 276.0
86.3988 274.0
86.4656 232.0
86.5324 235.0
86.5993 213.0
86.6661 182.0
86.733 210.0
86.7998 186.0
86.8667 207.0
86.9335 203.0
87.0004 178.0
87.0672 175.0
87.1341 185.0
87.2009 162.0
87.2677 160.0
87.3346 150.0
87.4014 147.0
87.4683 185.0
87.5351 181.0
87.602 151.0
87.6688 158.0
87.7357 165.0
87.8025 149.0
87.8693 148.0
87.9362 155.0
88.003 138.0
88.0699 143.0
88.1367 150.0
88.2036 161.0
88.2704 149.0
88.3373 155.0
88.4041 151.0
88.471 147.0
88.5378 160.0
88.6046 159.0
88.6715 150.0
88.7383 169.0
88.8052 158.0
88.872 161.0
88.9389 160.0
89.0057 157.0
89.0726 142.0
89.1394 160.0
89.2063 139.0
89.2731 164.0
89.3399 167.0
89.4068 170.0
89.4736 158.0
89.5405 172.0
89.6073 176.0
89.6742 151.0
89.741 159.0
89.8079 161.0
89.8747 141.0
89.9415 151.0