File: code/XRD_Analysis/External Sources/Fabian/SAPO-18/25012024_SAPO-18_calc.xy
4.98146 1223.0
5.0483 1203.0
5.11515 1204.0
5.18199 1190.0
5.24884 1110.0
5.31568 1154.0
5.38253 1145.0
5.44937 1080.0
5.51622 1074.0
5.58306 1097.0
5.64991 1021.0
5.71675 1074.0
5.7836 995.0
5.85044 1011.0
5.91729 1031.0
5.98413 1028.0
6.05098 1027.0
6.11782 1016.0
6.18467 1006.0
6.25151 891.0
6.31836 924.0
6.3852 894.0
6.45205 962.0
6.51889 892.0
6.58574 891.0
6.65258 931.0
6.71943 950.0
6.78627 899.0
6.85312 803.0
6.91996 804.0
6.98681 860.0
7.05365 916.0
7.1205 870.0
7.18734 804.0
7.25419 819.0
7.32103 880.0
7.38788 834.0
7.45472 822.0
7.52157 845.0
7.58841 806.0
7.65526 808.0
7.7221 793.0
7.78895 776.0
7.85579 794.0
7.92264 730.0
7.98948 794.0
8.05633 757.0
8.12317 685.0
8.19002 824.0
8.25686 801.0
8.32371 793.0
8.39055 753.0
8.4574 769.0
8.52424 767.0
8.59109 820.0
8.65793 764.0
8.72478 784.0
8.79162 793.0
8.85847 840.0
8.92532 882.0
8.99216 903.0
9.05901 973.0
9.12585 1033.0
9.1927 1254.0
9.25954 1675.0
9.32639 2481.0
9.39323 4130.0
9.46008 6149.0
9.52692 6205.0
9.59377 4774.0
9.66061 3895.0
9.72746 3043.0
9.7943 2241.0
9.86115 1660.0
9.92799 1364.0
9.99484 1063.0
10.0617 985.0
10.1285 916.0
10.1954 894.0
10.2622 901.0
10.3291 976.0
10.3959 1093.0
10.4628 1256.0
10.5296 1531.0
10.5964 1734.0
10.6633 1707.0
10.7301 1468.0
10.797 1174.0
10.8638 974.0
10.9307 824.0
10.9975 732.0
11.0644 706.0
11.1312 721.0
11.198 670.0
11.2649 648.0
11.3317 676.0
11.3986 699.0
11.4654 601.0
11.5323 614.0
11.5991 619.0
11.666 623.0
11.7328 615.0
11.7997 643.0
11.8665 592.0
11.9333 639.0
12.0002 620.0
12.067 591.0
12.1339 627.0
12.2007 587.0
12.2676 597.0
12.3344 602.0
12.4013 633.0
12.4681 642.0
12.5349 649.0
12.6018 762.0
12.6686 815.0
12.7355 1036.0
12.8023 1254.0
12.8692 1599.0
12.936 1569.0
13.0029 1156.0
13.0697 903.0
13.1366 755.0
13.2034 715.0
13.2702 695.0
13.3371 717.0
13.4039 707.0
13.4708 884.0
13.5376 914.0
13.6045 877.0
13.6713 816.0
13.7382 738.0
13.805 768.0
13.8719 762.0
13.9387 770.0
14.0055 739.0
14.0724 598.0
14.1392 596.0
14.2061 586.0
14.2729 571.0
14.3398 576.0
14.4066 542.0
14.4735 544.0
14.5403 553.0
14.6071 565.0
14.674 575.0
14.7408 580.0
14.8077 589.0
14.8745 630.0
14.9414 559.0
15.0082 564.0
15.0751 514.0
15.1419 561.0
15.2088 576.0
15.2756 595.0
15.3424 603.0
15.4093 603.0
15.4761 598.0
15.543 602.0
15.6098 688.0
15.6767 686.0
15.7435 704.0
15.8104 693.0
15.8772 810.0
15.944 859.0
16.0109 1043.0
16.0777 1138.0
16.1446 1109.0
16.2114 1119.0
16.2783 1031.0
16.3451 925.0
16.412 893.0
16.4788 789.0
16.5457 781.0
16.6125 737.0
16.6793 776.0
16.7462 855.0
16.813 1050.0
16.8799 1471.0
16.9467 1975.0
17.0136 2382.0
17.0804 2089.0
17.1473 1757.0
17.2141 1653.0
17.2809 1573.0
17.3478 1515.0
17.4146 1313.0
17.4815 1141.0
17.5483 1029.0
17.6152 974.0
17.682 833.0
17.7489 820.0
17.8157 847.0
17.8826 760.0
17.9494 778.0
18.0162 685.0
18.0831 653.0
18.1499 622.0
18.2168 638.0
18.2836 600.0
18.3505 631.0
18.4173 623.0
18.4842 579.0
18.551 609.0
18.6179 607.0
18.6847 642.0
18.7515 676.0
18.8184 672.0
18.8852 712.0
18.9521 786.0
19.0189 935.0
19.0858 949.0
19.1526 923.0
19.2195 773.0
19.2863 794.0
19.3531 769.0
19.42 693.0
19.4868 771.0
19.5537 810.0
19.6205 846.0
19.6874 886.0
19.7542 886.0
19.8211 868.0
19.8879 805.0
19.9548 834.0
20.0216 947.0
20.0884 1043.0
20.1553 1112.0
20.2221 1210.0
20.289 1177.0
20.3558 1126.0
20.4227 1185.0
20.4895 1145.0
20.5564 1331.0
20.6232 1501.0
20.69 1595.0
20.7569 1365.0
20.8237 1136.0
20.8906 1082.0
20.9574 953.0
21.0243 953.0
21.0911 1055.0
21.158 1032.0
21.2248 1218.0
21.2917 1242.0
21.3585 1353.0
21.4253 1439.0
21.4922 1546.0
21.559 1409.0
21.6259 1222.0
21.6927 960.0
21.7596 933.0
21.8264 893.0
21.8933 741.0
21.9601 809.0
22.0269 722.0
22.0938 734.0
22.1606 737.0
22.2275 784.0
22.2943 831.0
22.3612 778.0
22.428 832.0
22.4949 825.0
22.5617 947.0
22.6286 839.0
22.6954 788.0
22.7622 804.0
22.8291 851.0
22.8959 802.0
22.9628 831.0
23.0296 879.0
23.0965 939.0
23.1633 948.0
23.2302 1025.0
23.297 958.0
23.3639 924.0
23.4307 998.0
23.4975 1027.0
23.5644 1126.0
23.6312 1126.0
23.6981 1305.0
23.7649 1361.0
23.8318 1551.0
23.8986 1848.0
23.9655 1970.0
24.0323 1949.0
24.0991 1918.0
24.166 1720.0
24.2328 1576.0
24.2997 1406.0
24.3665 1175.0
24.4334 1095.0
24.5002 947.0
24.5671 981.0
24.6339 942.0
24.7008 876.0
24.7676 832.0
24.8344 880.0
24.9013 820.0
24.9681 882.0
25.035 863.0
25.1018 885.0
25.1687 879.0
25.2355 931.0
25.3024 977.0
25.3692 1024.0
25.436 1089.0
25.5029 1052.0
25.5697 1059.0
25.6366 1105.0
25.7034 1154.0
25.7703 1134.0
25.8371 1210.0
25.904 1328.0
25.9708 1360.0
26.0377 1429.0
26.1045 1377.0
26.1713 1286.0
26.2382 1286.0
26.305 1424.0
26.3719 1516.0
26.4387 1475.0
26.5056 1415.0
26.5724 1292.0
26.6393 1201.0
26.7061 1034.0
26.773 1073.0
26.8398 990.0
26.9066 974.0
26.9735 908.0
27.0403 938.0
27.1072 887.0
27.174 878.0
27.2409 919.0
27.3077 899.0
27.3746 922.0
27.4414 925.0
27.5082 916.0
27.5751 949.0
27.6419 946.0
27.7088 1026.0
27.7756 1041.0
27.8425 1083.0
27.9093 1129.0
27.9762 1245.0
28.043 1307.0
28.1099 1385.0
28.1767 1330.0
28.2435 1222.0
28.3104 1150.0
28.3772 1136.0
28.4441 1063.0
28.5109 1073.0
28.5778 1040.0
28.6446 1021.0
28.7115 979.0
28.7783 926.0
28.8451 933.0
28.912 942.0
28.9788 914.0
29.0457 937.0
29.1125 971.0
29.1794 928.0
29.2462 915.0
29.3131 1013.0
29.3799 979.0
29.4468 1072.0
29.5136 1083.0
29.5804 1068.0
29.6473 1062.0
29.7141 1157.0
29.781 1136.0
29.8478 1181.0
29.9147 1112.0
29.9815 1206.0
30.0484 1247.0
30.1152 1339.0
30.182 1178.0
30.2489 1200.0
30.3157 1204.0
30.3826 1144.0
30.4494 1190.0
30.5163 1205.0
30.5831 1239.0
30.65 1303.0
30.7168 1356.0
30.7837 1410.0
30.8505 1406.0
30.9173 1416.0
30.9842 1622.0
31.051 1634.0
31.1179 1791.0
31.1847 1874.0
31.2516 1834.0
31.3184 1723.0
31.3853 1661.0
31.4521 1421.0
31.519 1333.0
31.5858 1245.0
31.6526 1125.0
31.7195 1151.0
31.7863 1164.0
31.8532 1156.0
31.92 1029.0
31.9869 1063.0
32.0537 1001.0
32.1206 1027.0
32.1874 1002.0
32.2542 1069.0
32.3211 1067.0
32.3879 1114.0
32.4548 1047.0
32.5216 1103.0
32.5885 1111.0
32.6553 1023.0
32.7222 1024.0
32.789 1039.0
32.8559 1110.0
32.9227 1071.0
32.9895 1096.0
33.0564 1098.0
33.1232 1020.0
33.1901 1000.0
33.2569 924.0
33.3238 852.0
33.3906 855.0
33.4575 764.0
33.5243 788.0
33.5911 727.0
33.658 708.0
33.7248 696.0
33.7917 717.0
33.8585 644.0
33.9254 681.0
33.9922 666.0
34.0591 613.0
34.1259 631.0
34.1928 642.0
34.2596 582.0
34.3264 659.0
34.3933 604.0
34.4601 625.0
34.527 621.0
34.5938 636.0
34.6607 611.0
34.7275 596.0
34.7944 588.0
34.8612 599.0
34.928 661.0
34.9949 620.0
35.0617 598.0
35.1286 587.0
35.1954 578.0
35.2623 555.0
35.3291 574.0
35.396 539.0
35.4628 578.0
35.5297 533.0
35.5965 513.0
35.6633 553.0
35.7302 541.0
35.797 581.0
35.8639 574.0
35.9307 568.0
35.9976 548.0
36.0644 590.0
36.1313 576.0
36.1981 580.0
36.265 572.0
36.3318 550.0
36.3986 545.0
36.4655 585.0
36.5323 557.0
36.5992 506.0
36.666 567.0
36.7329 464.0
36.7997 510.0
36.8666 504.0
36.9334 526.0
37.0002 455.0
37.0671 441.0
37.1339 474.0
37.2008 479.0
37.2676 447.0
37.3345 392.0
37.4013 473.0
37.4682 439.0
37.535 431.0
37.6019 436.0
37.6687 439.0
37.7355 449.0
37.8024 404.0
37.8692 411.0
37.9361 420.0
38.0029 438.0
38.0698 396.0
38.1366 435.0
38.2035 406.0
38.2703 413.0
38.3371 460.0
38.404 427.0
38.4708 442.0
38.5377 397.0
38.6045 402.0
38.6714 426.0
38.7382 419.0
38.8051 420.0
38.8719 415.0
38.9388 413.0
39.0056 408.0
39.0724 440.0
39.1393 410.0
39.2061 469.0
39.273 446.0
39.3398 422.0
39.4067 407.0
39.4735 432.0
39.5404 472.0
39.6072 423.0
39.6741 440.0
39.7409 412.0
39.8077 418.0
39.8746 383.0
39.9414 408.0
40.0083 409.0
40.0751 400.0
40.142 426.0
40.2088 440.0
40.2757 417.0
40.3425 415.0
40.4093 426.0
40.4762 438.0
40.543 434.0
40.6099 435.0
40.6767 413.0
40.7436 425.0
40.8104 454.0
40.8773 445.0
40.9441 438.0
41.011 370.0
41.0778 415.0
41.1446 375.0
41.2115 406.0
41.2783 456.0
41.3452 411.0
41.412 444.0
41.4789 446.0
41.5457 446.0
41.6126 447.0
41.6794 419.0
41.7462 449.0
41.8131 456.0
41.8799 428.0
41.9468 420.0
42.0136 439.0
42.0805 397.0
42.1473 435.0
42.2142 404.0
42.281 409.0
42.3479 402.0
42.4147 415.0
42.4815 439.0
42.5484 375.0
42.6152 428.0
42.6821 408.0
42.7489 394.0
42.8158 395.0
42.8826 419.0
42.9495 370.0
43.0163 377.0
43.0831 380.0
43.15 412.0
43.2168 459.0
43.2837 443.0
43.3505 434.0
43.4174 417.0
43.4842 389.0
43.5511 423.0
43.6179 413.0
43.6848 388.0
43.7516 401.0
43.8184 424.0
43.8853 429.0
43.9521 442.0
44.019 386.0
44.0858 379.0
44.1527 382.0
44.2195 394.0
44.2864 399.0
44.3532 356.0
44.4201 376.0
44.4869 376.0
44.5537 417.0
44.6206 414.0
44.6874 398.0
44.7543 425.0
44.8211 420.0
44.888 380.0
44.9548 375.0
45.0217 396.0
45.0885 419.0
45.1553 419.0
45.2222 416.0
45.289 402.0
45.3559 398.0
45.4227 413.0
45.4896 415.0
45.5564 398.0
45.6233 367.0
45.6901 376.0
45.757 352.0
45.8238 404.0
45.8906 429.0
45.9575 349.0
46.0243 411.0
46.0912 382.0
46.158 397.0
46.2249 389.0
46.2917 366.0
46.3586 368.0
46.4254 341.0
46.4922 383.0
46.5591 372.0
46.6259 392.0
46.6928 377.0
46.7596 365.0
46.8265 364.0
46.8933 367.0
46.9602 363.0
47.027 383.0
47.0939 344.0
47.1607 385.0
47.2275 344.0
47.2944 398.0
47.3612 389.0
47.4281 368.0
47.4949 373.0
47.5618 318.0
47.6286 370.0
47.6955 378.0
47.7623 409.0
47.8291 348.0
47.896 408.0
47.9628 368.0
48.0297 403.0
48.0965 382.0
48.1634 305.0
48.2302 363.0
48.2971 375.0
48.3639 398.0
48.4308 391.0
48.4976 380.0
48.5644 323.0
48.6313 362.0
48.6981 350.0
48.765 349.0
48.8318 410.0
48.8987 406.0
48.9655 420.0
49.0324 431.0
49.0992 415.0
49.1661 404.0
49.2329 420.0
49.2997 436.0
49.3666 415.0
49.4334 418.0
49.5003 411.0
49.5671 443.0
49.634 418.0
49.7008 442.0
49.7677 400.0
49.8345 449.0
49.9013 449.0
49.9682 423.0
50.035 408.0
50.1019 392.0
50.1687 369.0
50.2356 417.0
50.3024 368.0
50.3693 426.0
50.4361 428.0
50.503 458.0
50.5698 451.0
50.6366 442.0
50.7035 411.0
50.7703 428.0
50.8372 428.0
50.904 438.0
50.9709 428.0
51.0377 420.0
51.1046 411.0
51.1714 418.0
51.2382 450.0
51.3051 391.0
51.3719 376.0
51.4388 417.0
51.5056 387.0
51.5725 400.0
51.6393 364.0
51.7062 436.0
51.773 394.0
51.8399 418.0
51.9067 425.0
51.9735 376.0
52.0404 385.0
52.1072 379.0
52.1741 375.0
52.2409 356.0
52.3078 349.0
52.3746 385.0
52.4415 353.0
52.5083 384.0
52.5751 373.0
52.642 369.0
52.7088 413.0
52.7757 352.0
52.8425 325.0
52.9094 393.0
52.9762 364.0
53.0431 360.0
53.1099 387.0
53.1768 376.0
53.2436 357.0
53.3104 373.0
53.3773 373.0
53.4441 369.0
53.511 364.0
53.5778 378.0
53.6447 350.0
53.7115 373.0
53.7784 378.0
53.8452 349.0
53.9121 345.0
53.9789 371.0
54.0457 362.0
54.1126 355.0
54.1794 345.0
54.2463 344.0
54.3131 361.0
54.38 325.0
54.4468 349.0
54.5137 364.0
54.5805 378.0
54.6473 318.0
54.7142 355.0
54.781 347.0
54.8479 360.0
54.9147 330.0
54.9816 349.0
55.0484 356.0
55.1153 377.0
55.1821 365.0
55.249 364.0
55.3158 358.0
55.3826 350.0
55.4495 375.0
55.5163 371.0
55.5832 358.0
55.65 357.0
55.7169 364.0
55.7837 355.0
55.8506 383.0
55.9174 377.0
55.9842 348.0
56.0511 408.0
56.1179 397.0
56.1848 378.0
56.2516 372.0
56.3185 352.0
56.3853 332.0
56.4522 323.0
56.519 386.0
56.5859 347.0
56.6527 371.0
56.7195 323.0
56.7864 352.0
56.8532 361.0
56.9201 348.0
56.9869 336.0
57.0538 307.0
57.1206 335.0
57.1875 324.0
57.2543 300.0
57.3212 361.0
57.388 305.0
57.4548 297.0
57.5217 307.0
57.5885 334.0
57.6554 291.0
57.7222 293.0
57.7891 317.0
57.8559 307.0
57.9228 299.0
57.9896 315.0
58.0564 313.0
58.1233 375.0
58.1901 354.0
58.257 305.0
58.3238 338.0
58.3907 306.0
58.4575 292.0
58.5244 337.0
58.5912 290.0
58.6581 295.0
58.7249 318.0
58.7917 310.0
58.8586 353.0
58.9254 361.0
58.9923 302.0
59.0591 393.0
59.126 337.0
59.1928 317.0
59.2597 354.0
59.3265 348.0
59.3933 356.0
59.4602 322.0
59.527 370.0
59.5939 367.0
59.6607 339.0
59.7276 314.0
59.7944 324.0
59.8613 314.0
59.9281 339.0
59.995 317.0
60.0618 332.0
60.1286 326.0
60.1955 313.0
60.2623 330.0
60.3292 301.0
60.396 377.0
60.4629 300.0
60.5297 307.0
60.5966 335.0
60.6634 358.0
60.7302 315.0
60.7971 319.0
60.8639 326.0
60.9308 339.0
60.9976 294.0
61.0645 308.0
61.1313 302.0
61.1982 313.0
61.265 339.0
61.3319 350.0
61.3987 317.0
61.4655 334.0
61.5324 335.0
61.5992 328.0
61.6661 324.0
61.7329 331.0
61.7998 308.0
61.8666 351.0
61.9335 329.0
62.0003 302.0
62.0672 355.0
62.134 301.0
62.2008 301.0
62.2677 311.0
62.3345 299.0
62.4014 340.0
62.4682 306.0
62.5351 340.0
62.6019 302.0
62.6688 279.0
62.7356 294.0
62.8024 317.0
62.8693 314.0
62.9361 320.0
63.003 323.0
63.0698 332.0
63.1367 321.0
63.2035 292.0
63.2704 320.0
63.3372 297.0
63.4041 313.0
63.4709 353.0
63.5377 321.0
63.6046 340.0
63.6714 293.0
63.7383 288.0
63.8051 315.0
63.872 342.0
63.9388 302.0
64.0057 347.0
64.0725 287.0
64.1393 316.0
64.2062 305.0
64.273 317.0
64.3399 320.0
64.4067 326.0
64.4736 313.0
64.5404 300.0
64.6073 315.0
64.6741 304.0
64.741 346.0
64.8078 338.0
64.8746 321.0
64.9415 318.0
65.0083 315.0
65.0752 294.0
65.142 348.0
65.2089 299.0
65.2757 317.0
65.3426 328.0
65.4094 305.0
65.4762 290.0
65.5431 297.0
65.6099 280.0
65.6768 324.0
65.7436 304.0
65.8105 283.0
65.8773 303.0
65.9442 293.0
66.011 302.0
66.0779 308.0
66.1447 292.0
66.2115 317.0
66.2784 289.0
66.3452 326.0
66.4121 298.0
66.4789 322.0
66.5458 294.0
66.6126 322.0
66.6795 314.0
66.7463 311.0
66.8132 317.0
66.88 318.0
66.9468 317.0
67.0137 325.0
67.0805 347.0
67.1474 336.0
67.2142 308.0
67.2811 309.0
67.3479 321.0
67.4148 320.0
67.4816 291.0
67.5484 298.0
67.6153 325.0
67.6821 306.0
67.749 321.0
67.8158 295.0
67.8827 306.0
67.9495 306.0
68.0164 279.0
68.0832 295.0
68.1501 292.0
68.2169 277.0
68.2837 314.0
68.3506 315.0
68.4174 285.0
68.4843 293.0
68.5511 314.0
68.618 278.0
68.6848 291.0
68.7517 304.0
68.8185 263.0
68.8853 307.0
68.9522 266.0
69.019 314.0
69.0859 288.0
69.1527 298.0
69.2196 280.0
69.2864 306.0
69.3533 275.0
69.4201 302.0
69.487 258.0
69.5538 308.0
69.6206 288.0
69.6875 286.0
69.7543 279.0
69.8212 286.0
69.888 264.0
69.9549 261.0
70.0217 266.0
70.0886 336.0
70.1554 286.0
70.2222 278.0
70.2891 270.0
70.3559 271.0
70.4228 303.0
70.4896 280.0
70.5565 282.0
70.6233 292.0
70.6902 280.0
70.757 257.0
70.8239 330.0
70.8907 323.0
70.9575 259.0
71.0244 280.0
71.0912 258.0
71.1581 262.0
71.2249 268.0
71.2918 264.0
71.3586 276.0
71.4255 285.0
71.4923 301.0
71.5592 271.0
71.626 282.0
71.6928 275.0
71.7597 274.0
71.8265 280.0
71.8934 250.0
71.9602 244.0
72.0271 255.0
72.0939 229.0
72.1608 282.0
72.2276 251.0
72.2944 259.0
72.3613 257.0
72.4281 269.0
72.495 257.0
72.5618 294.0
72.6287 248.0
72.6955 277.0
72.7624 263.0
72.8292 284.0
72.8961 287.0
72.9629 273.0
73.0297 267.0
73.0966 266.0
73.1634 306.0
73.2303 276.0
73.2971 275.0
73.364 251.0
73.4308 244.0
73.4977 266.0
73.5645 251.0
73.6313 257.0
73.6982 285.0
73.765 288.0
73.8319 229.0
73.8987 251.0
73.9656 267.0
74.0324 247.0
74.0993 228.0
74.1661 267.0
74.233 254.0
74.2998 235.0
74.3666 251.0
74.4335 243.0
74.5003 269.0
74.5672 244.0
74.634 268.0
74.7009 209.0
74.7677 245.0
74.8346 226.0
74.9014 253.0
74.9683 255.0
75.0351 239.0
75.1019 223.0
75.1688 245.0
75.2356 239.0
75.3025 219.0
75.3693 260.0
75.4362 228.0
75.503 256.0
75.5699 247.0
75.6367 239.0
75.7035 225.0
75.7704 250.0
75.8372 266.0
75.9041 247.0
75.9709 256.0
76.0378 256.0
76.1046 252.0
76.1715 220.0
76.2383 240.0
76.3052 253.0
76.372 257.0
76.4388 229.0
76.5057 216.0
76.5725 220.0
76.6394 255.0
76.7062 245.0
76.7731 228.0
76.8399 245.0
76.9068 228.0
76.9736 227.0
77.0404 236.0
77.1073 254.0
77.1741 259.0
77.241 246.0
77.3078 222.0
77.3747 212.0
77.4415 223.0
77.5084 206.0
77.5752 240.0
77.6421 225.0
77.7089 230.0
77.7757 236.0
77.8426 226.0
77.9094 229.0
77.9763 221.0
78.0431 250.0
78.11 217.0
78.1768 203.0
78.2437 205.0
78.3105 208.0
78.3773 199.0
78.4442 227.0
78.511 209.0
78.5779 204.0
78.6447 224.0
78.7116 209.0
78.7784 222.0
78.8453 227.0
78.9121 177.0
78.979 226.0
79.0458 230.0
79.1126 200.0
79.1795 215.0
79.2463 221.0
79.3132 217.0
79.38 204.0
79.4469 175.0
79.5137 224.0
79.5806 196.0
79.6474 205.0
79.7143 177.0
79.7811 185.0
79.8479 201.0
79.9148 177.0
79.9816 203.0
80.0485 236.0
80.1153 227.0
80.1822 226.0
80.249 192.0
80.3159 201.0
80.3827 215.0
80.4495 215.0
80.5164 239.0
80.5832 198.0
80.6501 201.0
80.7169 192.0
80.7838 213.0
80.8506 226.0
80.9175 184.0
80.9843 194.0
81.0512 209.0
81.118 206.0
81.1848 203.0
81.2517 197.0
81.3185 207.0
81.3854 201.0
81.4522 183.0
81.5191 176.0
81.5859 189.0
81.6528 170.0
81.7196 200.0
81.7864 199.0
81.8533 183.0
81.9201 224.0
81.987 194.0
82.0538 184.0
82.1207 185.0
82.1875 191.0
82.2544 179.0
82.3212 190.0
82.3881 188.0
82.4549 200.0
82.5217 198.0
82.5886 183.0
82.6554 207.0
82.7223 193.0
82.7891 192.0
82.856 192.0
82.9228 170.0
82.9897 178.0
83.0565 204.0
83.1233 162.0
83.1902 185.0
83.257 161.0
83.3239 204.0
83.3907 168.0
83.4576 192.0
83.5244 174.0
83.5913 174.0
83.6581 179.0
83.725 165.0
83.7918 180.0
83.8586 166.0
83.9255 155.0
83.9923 190.0
84.0592 206.0
84.126 182.0
84.1929 167.0
84.2597 186.0
84.3266 167.0
84.3934 181.0
84.4603 165.0
84.5271 174.0
84.5939 191.0
84.6608 178.0
84.7276 165.0
84.7945 167.0
84.8613 165.0
84.9282 164.0
84.995 175.0
85.0619 163.0
85.1287 183.0
85.1955 173.0
85.2624 175.0
85.3292 170.0
85.3961 176.0
85.4629 145.0
85.5298 148.0
85.5966 196.0
85.6635 178.0
85.7303 175.0
85.7972 176.0
85.864 181.0
85.9308 157.0
85.9977 167.0
86.0645 147.0
86.1314 184.0
86.1982 163.0
86.2651 185.0
86.3319 129.0
86.3988 163.0
86.4656 173.0
86.5324 142.0
86.5993 136.0
86.6661 155.0
86.733 137.0
86.7998 152.0
86.8667 151.0
86.9335 146.0
87.0004 146.0
87.0672 131.0
87.1341 146.0
87.2009 162.0
87.2677 165.0
87.3346 163.0
87.4014 143.0
87.4683 155.0
87.5351 139.0
87.602 142.0
87.6688 166.0
87.7357 158.0
87.8025 147.0
87.8693 133.0
87.9362 144.0
88.003 178.0
88.0699 181.0
88.1367 151.0
88.2036 139.0
88.2704 153.0
88.3373 136.0
88.4041 167.0
88.471 167.0
88.5378 158.0
88.6046 127.0
88.6715 155.0
88.7383 147.0
88.8052 145.0
88.872 150.0
88.9389 160.0
89.0057 149.0
89.0726 148.0
89.1394 149.0
89.2063 143.0
89.2731 170.0
89.3399 155.0
89.4068 144.0
89.4736 139.0
89.5405 162.0
89.6073 174.0
89.6742 163.0
89.741 105.0
89.8079 154.0
89.8747 159.0
89.9415 133.0