File: code/XRD_Analysis/External Sources/Fabian/SAPO-18/5-90_step0_016_1h_20240108_SAPO-18_anderer_sample_holder_fein.xy
4.98146 1759.0
5.0483 1643.0
5.11515 1613.0
5.18199 1681.0
5.24884 1600.0
5.31568 1585.0
5.38253 1500.0
5.44937 1469.0
5.51622 1469.0
5.58306 1585.0
5.64991 1464.0
5.71675 1400.0
5.7836 1344.0
5.85044 1343.0
5.91729 1364.0
5.98413 1237.0
6.05098 1259.0
6.11782 1213.0
6.18467 1263.0
6.25151 1190.0
6.31836 1216.0
6.3852 1182.0
6.45205 1204.0
6.51889 1071.0
6.58574 1056.0
6.65258 1084.0
6.71943 1044.0
6.78627 1168.0
6.85312 1066.0
6.91996 1018.0
6.98681 1071.0
7.05365 1037.0
7.1205 1019.0
7.18734 1012.0
7.25419 1069.0
7.32103 993.0
7.38788 924.0
7.45472 1080.0
7.52157 954.0
7.58841 974.0
7.65526 942.0
7.7221 956.0
7.78895 1006.0
7.85579 945.0
7.92264 893.0
7.98948 927.0
8.05633 916.0
8.12317 908.0
8.19002 965.0
8.25686 915.0
8.32371 912.0
8.39055 934.0
8.4574 896.0
8.52424 943.0
8.59109 893.0
8.65793 883.0
8.72478 908.0
8.79162 941.0
8.85847 1012.0
8.92532 1010.0
8.99216 1072.0
9.05901 1107.0
9.12585 1276.0
9.1927 1551.0
9.25954 2002.0
9.32639 2883.0
9.39323 5181.0
9.46008 9398.0
9.52692 12416.0
9.59377 8771.0
9.66061 4078.0
9.72746 2202.0
9.7943 1547.0
9.86115 1265.0
9.92799 1082.0
9.99484 1018.0
10.0617 962.0
10.1285 1000.0
10.1954 959.0
10.2622 1033.0
10.3291 1066.0
10.3959 1331.0
10.4628 1676.0
10.5296 1789.0
10.5964 1770.0
10.6633 1601.0
10.7301 1427.0
10.797 1319.0
10.8638 1333.0
10.9307 1228.0
10.9975 1164.0
11.0644 939.0
11.1312 877.0
11.198 836.0
11.2649 781.0
11.3317 773.0
11.3986 732.0
11.4654 684.0
11.5323 693.0
11.5991 674.0
11.666 714.0
11.7328 691.0
11.7997 684.0
11.8665 680.0
11.9333 689.0
12.0002 701.0
12.067 656.0
12.1339 672.0
12.2007 677.0
12.2676 693.0
12.3344 630.0
12.4013 737.0
12.4681 724.0
12.5349 689.0
12.6018 709.0
12.6686 857.0
12.7355 979.0
12.8023 1244.0
12.8692 1297.0
12.936 1262.0
13.0029 1135.0
13.0697 1136.0
13.1366 930.0
13.2034 795.0
13.2702 720.0
13.3371 725.0
13.4039 644.0
13.4708 638.0
13.5376 653.0
13.6045 686.0
13.6713 677.0
13.7382 753.0
13.805 819.0
13.8719 919.0
13.9387 1328.0
14.0055 1718.0
14.0724 1425.0
14.1392 950.0
14.2061 713.0
14.2729 746.0
14.3398 793.0
14.4066 758.0
14.4735 743.0
14.5403 793.0
14.6071 895.0
14.674 1107.0
14.7408 1521.0
14.8077 1820.0
14.8745 1417.0
14.9414 1099.0
15.0082 902.0
15.0751 850.0
15.1419 909.0
15.2088 836.0
15.2756 838.0
15.3424 940.0
15.4093 1011.0
15.4761 1236.0
15.543 1719.0
15.6098 2453.0
15.6767 2798.0
15.7435 2675.0
15.8104 2766.0
15.8772 3246.0
15.944 3954.0
16.0109 3613.0
16.0777 2903.0
16.1446 2214.0
16.2114 1835.0
16.2783 1584.0
16.3451 1570.0
16.412 1597.0
16.4788 1632.0
16.5457 1877.0
16.6125 2209.0
16.6793 2723.0
16.7462 3558.0
16.813 5001.0
16.8799 7364.0
16.9467 9550.0
17.0136 9405.0
17.0804 7134.0
17.1473 5111.0
17.2141 3679.0
17.2809 2914.0
17.3478 2328.0
17.4146 1990.0
17.4815 1671.0
17.5483 1646.0
17.6152 1633.0
17.682 1658.0
17.7489 1591.0
17.8157 1416.0
17.8826 1207.0
17.9494 1048.0
18.0162 888.0
18.0831 862.0
18.1499 777.0
18.2168 768.0
18.2836 770.0
18.3505 713.0
18.4173 675.0
18.4842 667.0
18.551 688.0
18.6179 682.0
18.6847 755.0
18.7515 724.0
18.8184 709.0
18.8852 790.0
18.9521 961.0
19.0189 1211.0
19.0858 1321.0
19.1526 1364.0
19.2195 1313.0
19.2863 1187.0
19.3531 1093.0
19.42 1377.0
19.4868 1755.0
19.5537 2632.0
19.6205 2705.0
19.6874 2227.0
19.7542 1850.0
19.8211 1953.0
19.8879 2172.0
19.9548 2766.0
20.0216 3238.0
20.0884 3583.0
20.1553 3076.0
20.2221 2471.0
20.289 2106.0
20.3558 2252.0
20.4227 2728.0
20.4895 3727.0
20.5564 4224.0
20.6232 3837.0
20.69 3454.0
20.7569 3488.0
20.8237 3535.0
20.8906 3417.0
20.9574 3139.0
21.0243 3062.0
21.0911 3297.0
21.158 3275.0
21.2248 3307.0
21.2917 3433.0
21.3585 3082.0
21.4253 2506.0
21.4922 1877.0
21.559 1643.0
21.6259 1527.0
21.6927 1503.0
21.7596 1537.0
21.8264 1579.0
21.8933 1621.0
21.9601 1699.0
22.0269 1706.0
22.0938 1486.0
22.1606 1135.0
22.2275 922.0
22.2943 899.0
22.3612 859.0
22.428 982.0
22.4949 1146.0
22.5617 1158.0
22.6286 1010.0
22.6954 965.0
22.7622 904.0
22.8291 804.0
22.8959 877.0
22.9628 886.0
23.0296 856.0
23.0965 883.0
23.1633 856.0
23.2302 847.0
23.297 881.0
23.3639 1013.0
23.4307 1255.0
23.4975 1414.0
23.5644 1518.0
23.6312 1616.0
23.6981 1938.0
23.7649 2261.0
23.8318 2609.0
23.8986 2921.0
23.9655 2845.0
24.0323 2776.0
24.0991 2285.0
24.166 1969.0
24.2328 1878.0
24.2997 1799.0
24.3665 1778.0
24.4334 1543.0
24.5002 1448.0
24.5671 1393.0
24.6339 1323.0
24.7008 1269.0
24.7676 1220.0
24.8344 1166.0
24.9013 974.0
24.9681 1000.0
25.035 981.0
25.1018 963.0
25.1687 926.0
25.2355 951.0
25.3024 1050.0
25.3692 982.0
25.436 1094.0
25.5029 1334.0
25.5697 1497.0
25.6366 1516.0
25.7034 1691.0
25.7703 1893.0
25.8371 1880.0
25.904 1667.0
25.9708 1665.0
26.0377 1762.0
26.1045 2025.0
26.1713 2678.0
26.2382 3159.0
26.305 3105.0
26.3719 2705.0
26.4387 2177.0
26.5056 1901.0
26.5724 1596.0
26.6393 1595.0
26.7061 1555.0
26.773 1594.0
26.8398 1340.0
26.9066 1169.0
26.9735 993.0
27.0403 939.0
27.1072 851.0
27.174 823.0
27.2409 842.0
27.3077 863.0
27.3746 993.0
27.4414 1010.0
27.5082 1198.0
27.5751 1285.0
27.6419 1518.0
27.7088 1765.0
27.7756 1963.0
27.8425 2049.0
27.9093 2058.0
27.9762 2021.0
28.043 1856.0
28.1099 1582.0
28.1767 1306.0
28.2435 1173.0
28.3104 948.0
28.3772 922.0
28.4441 786.0
28.5109 761.0
28.5778 779.0
28.6446 759.0
28.7115 761.0
28.7783 739.0
28.8451 759.0
28.912 783.0
28.9788 793.0
29.0457 958.0
29.1125 939.0
29.1794 977.0
29.2462 1043.0
29.3131 1039.0
29.3799 1056.0
29.4468 1057.0
29.5136 1069.0
29.5804 1074.0
29.6473 1089.0
29.7141 1279.0
29.781 1439.0
29.8478 1606.0
29.9147 1731.0
29.9815 1715.0
30.0484 1848.0
30.1152 2023.0
30.182 2239.0
30.2489 2231.0
30.3157 2177.0
30.3826 2113.0
30.4494 1840.0
30.5163 1745.0
30.5831 1735.0
30.65 1747.0
30.7168 1979.0
30.7837 2182.0
30.8505 2547.0
30.9173 3001.0
30.9842 3213.0
31.051 3105.0
31.1179 2730.0
31.1847 2332.0
31.2516 1939.0
31.3184 1590.0
31.3853 1512.0
31.4521 1338.0
31.519 1302.0
31.5858 1393.0
31.6526 1460.0
31.7195 1606.0
31.7863 1729.0
31.8532 1805.0
31.92 1736.0
31.9869 1758.0
32.0537 1956.0
32.1206 2190.0
32.1874 2141.0
32.2542 2142.0
32.3211 2096.0
32.3879 2167.0
32.4548 2126.0
32.5216 1991.0
32.5885 1872.0
32.6553 1750.0
32.7222 1547.0
32.789 1456.0
32.8559 1308.0
32.9227 1196.0
32.9895 1153.0
33.0564 1096.0
33.1232 992.0
33.1901 960.0
33.2569 933.0
33.3238 866.0
33.3906 901.0
33.4575 829.0
33.5243 740.0
33.5911 685.0
33.658 653.0
33.7248 672.0
33.7917 657.0
33.8585 587.0
33.9254 588.0
33.9922 549.0
34.0591 622.0
34.1259 602.0
34.1928 676.0
34.2596 764.0
34.3264 723.0
34.3933 717.0
34.4601 754.0
34.527 808.0
34.5938 814.0
34.6607 763.0
34.7275 719.0
34.7944 700.0
34.8612 601.0
34.928 595.0
34.9949 585.0
35.0617 549.0
35.1286 522.0
35.1954 555.0
35.2623 549.0
35.3291 532.0
35.396 508.0
35.4628 516.0
35.5297 500.0
35.5965 459.0
35.6633 493.0
35.7302 534.0
35.797 557.0
35.8639 602.0
35.9307 716.0
35.9976 779.0
36.0644 839.0
36.1313 901.0
36.1981 906.0
36.265 881.0
36.3318 838.0
36.3986 722.0
36.4655 725.0
36.5323 622.0
36.5992 572.0
36.666 561.0
36.7329 506.0
36.7997 506.0
36.8666 541.0
36.9334 535.0
37.0002 526.0
37.0671 492.0
37.1339 490.0
37.2008 498.0
37.2676 475.0
37.3345 473.0
37.4013 503.0
37.4682 454.0
37.535 482.0
37.6019 504.0
37.6687 473.0
37.7355 482.0
37.8024 449.0
37.8692 459.0
37.9361 475.0
38.0029 488.0
38.0698 501.0
38.1366 450.0
38.2035 465.0
38.2703 517.0
38.3371 489.0
38.404 493.0
38.4708 538.0
38.5377 567.0
38.6045 540.0
38.6714 572.0
38.7382 585.0
38.8051 586.0
38.8719 607.0
38.9388 697.0
39.0056 666.0
39.0724 629.0
39.1393 678.0
39.2061 678.0
39.273 691.0
39.3398 693.0
39.4067 579.0
39.4735 558.0
39.5404 558.0
39.6072 529.0
39.6741 556.0
39.7409 516.0
39.8077 564.0
39.8746 581.0
39.9414 540.0
40.0083 523.0
40.0751 597.0
40.142 636.0
40.2088 620.0
40.2757 610.0
40.3425 590.0
40.4093 607.0
40.4762 571.0
40.543 523.0
40.6099 522.0
40.6767 543.0
40.7436 528.0
40.8104 504.0
40.8773 564.0
40.9441 555.0
41.011 609.0
41.0778 600.0
41.1446 615.0
41.2115 670.0
41.2783 658.0
41.3452 673.0
41.412 666.0
41.4789 659.0
41.5457 650.0
41.6126 675.0
41.6794 644.0
41.7462 654.0
41.8131 641.0
41.8799 541.0
41.9468 502.0
42.0136 473.0
42.0805 465.0
42.1473 426.0
42.2142 422.0
42.281 496.0
42.3479 467.0
42.4147 464.0
42.4815 489.0
42.5484 492.0
42.6152 475.0
42.6821 576.0
42.7489 564.0
42.8158 631.0
42.8826 705.0
42.9495 741.0
43.0163 761.0
43.0831 807.0
43.15 824.0
43.2168 821.0
43.2837 770.0
43.3505 732.0
43.4174 695.0
43.4842 637.0
43.5511 556.0
43.6179 555.0
43.6848 575.0
43.7516 552.0
43.8184 561.0
43.8853 622.0
43.9521 533.0
44.019 548.0
44.0858 568.0
44.1527 621.0
44.2195 607.0
44.2864 626.0
44.3532 579.0
44.4201 553.0
44.4869 576.0
44.5537 495.0
44.6206 491.0
44.6874 514.0
44.7543 502.0
44.8211 493.0
44.888 509.0
44.9548 460.0
45.0217 502.0
45.0885 491.0
45.1553 459.0
45.2222 462.0
45.289 455.0
45.3559 422.0
45.4227 482.0
45.4896 449.0
45.5564 459.0
45.6233 458.0
45.6901 465.0
45.757 444.0
45.8238 455.0
45.8906 479.0
45.9575 428.0
46.0243 455.0
46.0912 429.0
46.158 475.0
46.2249 457.0
46.2917 471.0
46.3586 429.0
46.4254 442.0
46.4922 467.0
46.5591 493.0
46.6259 458.0
46.6928 469.0
46.7596 445.0
46.8265 476.0
46.8933 433.0
46.9602 447.0
47.027 445.0
47.0939 441.0
47.1607 430.0
47.2275 430.0
47.2944 440.0
47.3612 445.0
47.4281 464.0
47.4949 487.0
47.5618 445.0
47.6286 502.0
47.6955 478.0
47.7623 472.0
47.8291 509.0
47.896 475.0
47.9628 516.0
48.0297 557.0
48.0965 553.0
48.1634 584.0
48.2302 557.0
48.2971 565.0
48.3639 580.0
48.4308 636.0
48.4976 649.0
48.5644 634.0
48.6313 713.0
48.6981 836.0
48.765 916.0
48.8318 1042.0
48.8987 1149.0
48.9655 1168.0
49.0324 1145.0
49.0992 1042.0
49.1661 1127.0
49.2329 979.0
49.2997 922.0
49.3666 818.0
49.4334 846.0
49.5003 793.0
49.5671 775.0
49.634 734.0
49.7008 822.0
49.7677 815.0
49.8345 865.0
49.9013 817.0
49.9682 872.0
50.035 846.0
50.1019 822.0
50.1687 859.0
50.2356 798.0
50.3024 737.0
50.3693 774.0
50.4361 690.0
50.503 720.0
50.5698 709.0
50.6366 695.0
50.7035 756.0
50.7703 829.0
50.8372 771.0
50.904 847.0
50.9709 886.0
51.0377 844.0
51.1046 830.0
51.1714 865.0
51.2382 822.0
51.3051 743.0
51.3719 649.0
51.4388 679.0
51.5056 651.0
51.5725 600.0
51.6393 619.0
51.7062 550.0
51.773 579.0
51.8399 536.0
51.9067 528.0
51.9735 553.0
52.0404 599.0
52.1072 587.0
52.1741 590.0
52.2409 529.0
52.3078 629.0
52.3746 610.0
52.4415 588.0
52.5083 600.0
52.5751 584.0
52.642 525.0
52.7088 595.0
52.7757 525.0
52.8425 571.0
52.9094 584.0
52.9762 629.0
53.0431 548.0
53.1099 601.0
53.1768 575.0
53.2436 500.0
53.3104 506.0
53.3773 513.0
53.4441 511.0
53.511 521.0
53.5778 477.0
53.6447 445.0
53.7115 474.0
53.7784 470.0
53.8452 507.0
53.9121 479.0
53.9789 512.0
54.0457 479.0
54.1126 517.0
54.1794 545.0
54.2463 560.0
54.3131 526.0
54.38 605.0
54.4468 587.0
54.5137 565.0
54.5805 592.0
54.6473 641.0
54.7142 681.0
54.781 654.0
54.8479 610.0
54.9147 703.0
54.9816 678.0
55.0484 746.0
55.1153 725.0
55.1821 785.0
55.249 692.0
55.3158 742.0
55.3826 774.0
55.4495 683.0
55.5163 727.0
55.5832 747.0
55.65 735.0
55.7169 696.0
55.7837 674.0
55.8506 698.0
55.9174 657.0
55.9842 665.0
56.0511 563.0
56.1179 560.0
56.1848 541.0
56.2516 516.0
56.3185 509.0
56.3853 456.0
56.4522 445.0
56.519 428.0
56.5859 485.0
56.6527 411.0
56.7195 461.0
56.7864 445.0
56.8532 466.0
56.9201 467.0
56.9869 457.0
57.0538 449.0
57.1206 399.0
57.1875 479.0
57.2543 412.0
57.3212 438.0
57.388 461.0
57.4548 409.0
57.5217 411.0
57.5885 386.0
57.6554 398.0
57.7222 455.0
57.7891 427.0
57.8559 407.0
57.9228 425.0
57.9896 422.0
58.0564 454.0
58.1233 426.0
58.1901 457.0
58.257 409.0
58.3238 415.0
58.3907 473.0
58.4575 428.0
58.5244 482.0
58.5912 463.0
58.6581 463.0
58.7249 456.0
58.7917 426.0
58.8586 483.0
58.9254 464.0
58.9923 496.0
59.0591 527.0
59.126 477.0
59.1928 591.0
59.2597 567.0
59.3265 588.0
59.3933 588.0
59.4602 599.0
59.527 547.0
59.5939 587.0
59.6607 585.0
59.7276 532.0
59.7944 542.0
59.8613 498.0
59.9281 538.0
59.995 498.0
60.0618 533.0
60.1286 594.0
60.1955 513.0
60.2623 561.0
60.3292 587.0
60.396 611.0
60.4629 580.0
60.5297 591.0
60.5966 551.0
60.6634 535.0
60.7302 541.0
60.7971 512.0
60.8639 465.0
60.9308 506.0
60.9976 449.0
61.0645 464.0
61.1313 525.0
61.1982 442.0
61.265 503.0
61.3319 460.0
61.3987 525.0
61.4655 469.0
61.5324 506.0
61.5992 460.0
61.6661 451.0
61.7329 508.0
61.7998 447.0
61.8666 490.0
61.9335 459.0
62.0003 467.0
62.0672 496.0
62.134 480.0
62.2008 536.0
62.2677 517.0
62.3345 479.0
62.4014 505.0
62.4682 526.0
62.5351 512.0
62.6019 495.0
62.6688 501.0
62.7356 485.0
62.8024 481.0
62.8693 464.0
62.9361 495.0
63.003 501.0
63.0698 487.0
63.1367 505.0
63.2035 523.0
63.2704 489.0
63.3372 537.0
63.4041 478.0
63.4709 533.0
63.5377 509.0
63.6046 496.0
63.6714 449.0
63.7383 488.0
63.8051 510.0
63.872 513.0
63.9388 458.0
64.0057 477.0
64.0725 492.0
64.1393 487.0
64.2062 497.0
64.273 450.0
64.3399 472.0
64.4067 480.0
64.4736 430.0
64.5404 478.0
64.6073 453.0
64.6741 463.0
64.741 491.0
64.8078 482.0
64.8746 425.0
64.9415 424.0
65.0083 464.0
65.0752 460.0
65.142 428.0
65.2089 433.0
65.2757 463.0
65.3426 462.0
65.4094 471.0
65.4762 498.0
65.5431 485.0
65.6099 448.0
65.6768 520.0
65.7436 512.0
65.8105 544.0
65.8773 510.0
65.9442 557.0
66.011 501.0
66.0779 569.0
66.1447 548.0
66.2115 558.0
66.2784 583.0
66.3452 650.0
66.4121 672.0
66.4789 667.0
66.5458 774.0
66.6126 690.0
66.6795 717.0
66.7463 764.0
66.8132 726.0
66.88 635.0
66.9468 674.0
67.0137 613.0
67.0805 552.0
67.1474 560.0
67.2142 542.0
67.2811 527.0
67.3479 511.0
67.4148 502.0
67.4816 537.0
67.5484 477.0
67.6153 512.0
67.6821 519.0
67.749 534.0
67.8158 556.0
67.8827 507.0
67.9495 538.0
68.0164 492.0
68.0832 506.0
68.1501 493.0
68.2169 481.0
68.2837 459.0
68.3506 453.0
68.4174 478.0
68.4843 448.0
68.5511 463.0
68.618 490.0
68.6848 466.0
68.7517 459.0
68.8185 463.0
68.8853 500.0
68.9522 488.0
69.019 506.0
69.0859 459.0
69.1527 482.0
69.2196 520.0
69.2864 503.0
69.3533 529.0
69.4201 498.0
69.487 556.0
69.5538 563.0
69.6206 647.0
69.6875 656.0
69.7543 720.0
69.8212 736.0
69.888 758.0
69.9549 743.0
70.0217 716.0
70.0886 743.0
70.1554 632.0
70.2222 670.0
70.2891 620.0
70.3559 603.0
70.4228 563.0
70.4896 568.0
70.5565 534.0
70.6233 561.0
70.6902 538.0
70.757 520.0
70.8239 489.0
70.8907 505.0
70.9575 494.0
71.0244 498.0
71.0912 494.0
71.1581 475.0
71.2249 489.0
71.2918 503.0
71.3586 514.0
71.4255 559.0
71.4923 545.0
71.5592 520.0
71.626 534.0
71.6928 533.0
71.7597 556.0
71.8265 547.0
71.8934 529.0
71.9602 578.0
72.0271 545.0
72.0939 532.0
72.1608 574.0
72.2276 566.0
72.2944 575.0
72.3613 602.0
72.4281 585.0
72.495 612.0
72.5618 599.0
72.6287 583.0
72.6955 541.0
72.7624 565.0
72.8292 509.0
72.8961 494.0
72.9629 536.0
73.0297 551.0
73.0966 487.0
73.1634 533.0
73.2303 488.0
73.2971 508.0
73.364 491.0
73.4308 480.0
73.4977 481.0
73.5645 516.0
73.6313 461.0
73.6982 483.0
73.765 455.0
73.8319 462.0
73.8987 414.0
73.9656 454.0
74.0324 451.0
74.0993 423.0
74.1661 429.0
74.233 458.0
74.2998 425.0
74.3666 479.0
74.4335 447.0
74.5003 516.0
74.5672 426.0
74.634 454.0
74.7009 448.0
74.7677 442.0
74.8346 451.0
74.9014 454.0
74.9683 449.0
75.0351 477.0
75.1019 442.0
75.1688 443.0
75.2356 409.0
75.3025 396.0
75.3693 456.0
75.4362 408.0
75.503 419.0
75.5699 448.0
75.6367 398.0
75.7035 436.0
75.7704 430.0
75.8372 403.0
75.9041 382.0
75.9709 424.0
76.0378 423.0
76.1046 397.0
76.1715 425.0
76.2383 406.0
76.3052 398.0
76.372 425.0
76.4388 439.0
76.5057 372.0
76.5725 382.0
76.6394 396.0
76.7062 429.0
76.7731 416.0
76.8399 425.0
76.9068 473.0
76.9736 445.0
77.0404 450.0
77.1073 442.0
77.1741 422.0
77.241 423.0
77.3078 447.0
77.3747 395.0
77.4415 402.0
77.5084 428.0
77.5752 397.0
77.6421 395.0
77.7089 423.0
77.7757 413.0
77.8426 371.0
77.9094 424.0
77.9763 383.0
78.0431 339.0
78.11 398.0
78.1768 379.0
78.2437 361.0
78.3105 387.0
78.3773 395.0
78.4442 370.0
78.511 380.0
78.5779 346.0
78.6447 360.0
78.7116 413.0
78.7784 389.0
78.8453 381.0
78.9121 362.0
78.979 373.0
79.0458 380.0
79.1126 398.0
79.1795 361.0
79.2463 361.0
79.3132 350.0
79.38 369.0
79.4469 376.0
79.5137 373.0
79.5806 380.0
79.6474 410.0
79.7143 380.0
79.7811 382.0
79.8479 404.0
79.9148 382.0
79.9816 384.0
80.0485 333.0
80.1153 349.0
80.1822 386.0
80.249 348.0
80.3159 392.0
80.3827 362.0
80.4495 382.0
80.5164 392.0
80.5832 379.0
80.6501 399.0
80.7169 399.0
80.7838 413.0
80.8506 413.0
80.9175 428.0
80.9843 416.0
81.0512 426.0
81.118 404.0
81.1848 407.0
81.2517 377.0
81.3185 337.0
81.3854 394.0
81.4522 370.0
81.5191 364.0
81.5859 383.0
81.6528 398.0
81.7196 409.0
81.7864 371.0
81.8533 387.0
81.9201 380.0
81.987 339.0
82.0538 338.0
82.1207 324.0
82.1875 344.0
82.2544 355.0
82.3212 344.0
82.3881 366.0
82.4549 330.0
82.5217 347.0
82.5886 363.0
82.6554 369.0
82.7223 330.0
82.7891 348.0
82.856 346.0
82.9228 355.0
82.9897 417.0
83.0565 373.0
83.1233 330.0
83.1902 361.0
83.257 330.0
83.3239 371.0
83.3907 331.0
83.4576 323.0
83.5244 365.0
83.5913 321.0
83.6581 337.0
83.725 322.0
83.7918 318.0
83.8586 318.0
83.9255 339.0
83.9923 300.0
84.0592 325.0
84.126 318.0
84.1929 301.0
84.2597 352.0
84.3266 347.0
84.3934 346.0
84.4603 339.0
84.5271 323.0
84.5939 313.0
84.6608 310.0
84.7276 320.0
84.7945 328.0
84.8613 311.0
84.9282 314.0
84.995 344.0
85.0619 291.0
85.1287 284.0
85.1955 303.0
85.2624 321.0
85.3292 279.0
85.3961 323.0
85.4629 334.0
85.5298 286.0
85.5966 297.0
85.6635 276.0
85.7303 287.0
85.7972 319.0
85.864 261.0
85.9308 300.0
85.9977 279.0
86.0645 311.0
86.1314 291.0
86.1982 262.0
86.2651 267.0
86.3319 259.0
86.3988 308.0
86.4656 297.0
86.5324 298.0
86.5993 293.0
86.6661 252.0
86.733 293.0
86.7998 260.0
86.8667 271.0
86.9335 298.0
87.0004 279.0
87.0672 274.0
87.1341 288.0
87.2009 291.0
87.2677 314.0
87.3346 264.0
87.4014 304.0
87.4683 301.0
87.5351 276.0
87.602 270.0
87.6688 332.0
87.7357 278.0
87.8025 256.0
87.8693 269.0
87.9362 259.0
88.003 262.0
88.0699 279.0
88.1367 272.0
88.2036 251.0
88.2704 271.0
88.3373 284.0
88.4041 262.0
88.471 259.0
88.5378 255.0
88.6046 254.0
88.6715 258.0
88.7383 260.0
88.8052 285.0
88.872 268.0
88.9389 300.0
89.0057 298.0
89.0726 271.0
89.1394 271.0
89.2063 251.0
89.2731 251.0
89.3399 267.0
89.4068 268.0
89.4736 242.0
89.5405 266.0
89.6073 262.0
89.6742 244.0
89.741 225.0
89.8079 252.0
89.8747 258.0
89.9415 232.0