File: code/XRD_Analysis/External Sources/Fabian/SAPO-18/5-90_step0_016_1h_20240108_SAPO-18_zero_BG_holder_fein.xy
4.98146 1308.0
5.0483 1246.0
5.11515 1237.0
5.18199 1181.0
5.24884 1161.0
5.31568 1179.0
5.38253 1137.0
5.44937 1131.0
5.51622 1111.0
5.58306 1028.0
5.64991 1048.0
5.71675 1054.0
5.7836 1023.0
5.85044 1009.0
5.91729 966.0
5.98413 990.0
6.05098 981.0
6.11782 916.0
6.18467 979.0
6.25151 900.0
6.31836 925.0
6.3852 947.0
6.45205 884.0
6.51889 836.0
6.58574 880.0
6.65258 895.0
6.71943 838.0
6.78627 835.0
6.85312 836.0
6.91996 846.0
6.98681 782.0
7.05365 804.0
7.1205 801.0
7.18734 792.0
7.25419 771.0
7.32103 845.0
7.38788 777.0
7.45472 761.0
7.52157 755.0
7.58841 742.0
7.65526 776.0
7.7221 722.0
7.78895 783.0
7.85579 753.0
7.92264 761.0
7.98948 720.0
8.05633 740.0
8.12317 723.0
8.19002 708.0
8.25686 709.0
8.32371 682.0
8.39055 759.0
8.4574 698.0
8.52424 714.0
8.59109 762.0
8.65793 701.0
8.72478 711.0
8.79162 773.0
8.85847 747.0
8.92532 743.0
8.99216 760.0
9.05901 740.0
9.12585 863.0
9.1927 909.0
9.25954 932.0
9.32639 1170.0
9.39323 1526.0
9.46008 2204.0
9.52692 3434.0
9.59377 5804.0
9.66061 7959.0
9.72746 7706.0
9.7943 4290.0
9.86115 1989.0
9.92799 1252.0
9.99484 976.0
10.0617 866.0
10.1285 784.0
10.1954 763.0
10.2622 694.0
10.3291 692.0
10.3959 777.0
10.4628 850.0
10.5296 969.0
10.5964 1203.0
10.6633 1401.0
10.7301 1385.0
10.797 1206.0
10.8638 1095.0
10.9307 1051.0
10.9975 1059.0
11.0644 933.0
11.1312 939.0
11.198 820.0
11.2649 656.0
11.3317 602.0
11.3986 626.0
11.4654 558.0
11.5323 557.0
11.5991 545.0
11.666 598.0
11.7328 547.0
11.7997 581.0
11.8665 561.0
11.9333 491.0
12.0002 558.0
12.067 532.0
12.1339 512.0
12.2007 514.0
12.2676 503.0
12.3344 485.0
12.4013 505.0
12.4681 488.0
12.5349 508.0
12.6018 531.0
12.6686 579.0
12.7355 580.0
12.8023 670.0
12.8692 727.0
12.936 834.0
13.0029 987.0
13.0697 927.0
13.1366 899.0
13.2034 746.0
13.2702 741.0
13.3371 635.0
13.4039 528.0
13.4708 525.0
13.5376 511.0
13.6045 535.0
13.6713 497.0
13.7382 520.0
13.805 520.0
13.8719 574.0
13.9387 576.0
14.0055 770.0
14.0724 957.0
14.1392 1187.0
14.2061 1158.0
14.2729 738.0
14.3398 575.0
14.4066 491.0
14.4735 542.0
14.5403 585.0
14.6071 617.0
14.674 630.0
14.7408 706.0
14.8077 898.0
14.8745 1094.0
14.9414 1197.0
15.0082 1185.0
15.0751 864.0
15.1419 704.0
15.2088 693.0
15.2756 582.0
15.3424 669.0
15.4093 642.0
15.4761 729.0
15.543 819.0
15.6098 1000.0
15.6767 1252.0
15.7435 1697.0
15.8104 2026.0
15.8772 2174.0
15.944 2233.0
16.0109 2402.0
16.0777 2747.0
16.1446 2724.0
16.2114 2284.0
16.2783 1713.0
16.3451 1397.0
16.412 1250.0
16.4788 1225.0
16.5457 1178.0
16.6125 1363.0
16.6793 1447.0
16.7462 1727.0
16.813 2133.0
16.8799 3106.0
16.9467 4063.0
17.0136 5263.0
17.0804 6653.0
17.1473 6990.0
17.2141 5618.0
17.2809 4136.0
17.3478 3094.0
17.4146 2411.0
17.4815 1980.0
17.5483 1557.0
17.6152 1434.0
17.682 1361.0
17.7489 1293.0
17.8157 1279.0
17.8826 1215.0
17.9494 1142.0
18.0162 935.0
18.0831 873.0
18.1499 742.0
18.2168 675.0
18.2836 591.0
18.3505 583.0
18.4173 614.0
18.4842 578.0
18.551 591.0
18.6179 529.0
18.6847 545.0
18.7515 547.0
18.8184 572.0
18.8852 576.0
18.9521 622.0
19.0189 677.0
19.0858 807.0
19.1526 918.0
19.2195 1080.0
19.2863 1066.0
19.3531 1035.0
19.42 979.0
19.4868 1008.0
19.5537 1133.0
19.6205 1443.0
19.6874 1888.0
19.7542 2114.0
19.8211 1931.0
19.8879 1631.0
19.9548 1610.0
20.0216 1875.0
20.0884 2184.0
20.1553 2585.0
20.2221 2796.0
20.289 2590.0
20.3558 2165.0
20.4227 2013.0
20.4895 1896.0
20.5564 2325.0
20.6232 2830.0
20.69 3266.0
20.7569 3231.0
20.8237 2933.0
20.8906 2902.0
20.9574 2836.0
21.0243 2753.0
21.0911 2671.0
21.158 2519.0
21.2248 2643.0
21.2917 2758.0
21.3585 2667.0
21.4253 2644.0
21.4922 2532.0
21.559 2114.0
21.6259 1643.0
21.6927 1368.0
21.7596 1331.0
21.8264 1337.0
21.8933 1416.0
21.9601 1403.0
22.0269 1434.0
22.0938 1372.0
22.1606 1352.0
22.2275 1170.0
22.2943 971.0
22.3612 781.0
22.428 805.0
22.4949 777.0
22.5617 878.0
22.6286 955.0
22.6954 945.0
22.7622 838.0
22.8291 794.0
22.8959 758.0
22.9628 695.0
23.0296 736.0
23.0965 729.0
23.1633 739.0
23.2302 723.0
23.297 713.0
23.3639 776.0
23.4307 795.0
23.4975 915.0
23.5644 1062.0
23.6312 1252.0
23.6981 1260.0
23.7649 1441.0
23.8318 1757.0
23.8986 1977.0
23.9655 2311.0
24.0323 2399.0
24.0991 2460.0
24.166 2341.0
24.2328 2117.0
24.2997 1740.0
24.3665 1695.0
24.4334 1539.0
24.5002 1555.0
24.5671 1365.0
24.6339 1260.0
24.7008 1198.0
24.7676 1096.0
24.8344 1048.0
24.9013 1028.0
24.9681 985.0
25.035 904.0
25.1018 814.0
25.1687 839.0
25.2355 871.0
25.3024 829.0
25.3692 868.0
25.436 895.0
25.5029 888.0
25.5697 986.0
25.6366 1051.0
25.7034 1239.0
25.7703 1341.0
25.8371 1453.0
25.904 1619.0
25.9708 1600.0
26.0377 1638.0
26.1045 1557.0
26.1713 1595.0
26.2382 1839.0
26.305 2314.0
26.3719 2679.0
26.4387 2708.0
26.5056 2436.0
26.5724 2060.0
26.6393 1687.0
26.7061 1516.0
26.773 1415.0
26.8398 1412.0
26.9066 1289.0
26.9735 1218.0
27.0403 1041.0
27.1072 947.0
27.174 739.0
27.2409 764.0
27.3077 669.0
27.3746 742.0
27.4414 789.0
27.5082 831.0
27.5751 923.0
27.6419 1037.0
27.7088 1132.0
27.7756 1321.0
27.8425 1493.0
27.9093 1696.0
27.9762 1918.0
28.043 1818.0
28.1099 1669.0
28.1767 1622.0
28.2435 1425.0
28.3104 1227.0
28.3772 1069.0
28.4441 931.0
28.5109 786.0
28.5778 728.0
28.6446 679.0
28.7115 645.0
28.7783 701.0
28.8451 689.0
28.912 642.0
28.9788 672.0
29.0457 736.0
29.1125 710.0
29.1794 787.0
29.2462 862.0
29.3131 939.0
29.3799 935.0
29.4468 882.0
29.5136 982.0
29.5804 992.0
29.6473 1022.0
29.7141 1001.0
29.781 1050.0
29.8478 1134.0
29.9147 1270.0
29.9815 1371.0
30.0484 1532.0
30.1152 1552.0
30.182 1688.0
30.2489 1736.0
30.3157 1886.0
30.3826 2062.0
30.4494 1993.0
30.5163 1832.0
30.5831 1707.0
30.65 1698.0
30.7168 1516.0
30.7837 1659.0
30.8505 1790.0
30.9173 1985.0
30.9842 2352.0
31.051 2601.0
31.1179 2711.0
31.1847 2679.0
31.2516 2488.0
31.3184 2167.0
31.3853 1837.0
31.4521 1499.0
31.519 1315.0
31.5858 1197.0
31.6526 1211.0
31.7195 1229.0
31.7863 1324.0
31.8532 1397.0
31.92 1444.0
31.9869 1515.0
32.0537 1572.0
32.1206 1630.0
32.1874 1695.0
32.2542 1855.0
32.3211 2010.0
32.3879 1933.0
32.4548 1883.0
32.5216 1805.0
32.5885 1865.0
32.6553 1758.0
32.7222 1634.0
32.789 1616.0
32.8559 1463.0
32.9227 1353.0
32.9895 1169.0
33.0564 1100.0
33.1232 1064.0
33.1901 919.0
33.2569 922.0
33.3238 805.0
33.3906 828.0
33.4575 782.0
33.5243 741.0
33.5911 716.0
33.658 723.0
33.7248 622.0
33.7917 599.0
33.8585 579.0
33.9254 534.0
33.9922 573.0
34.0591 520.0
34.1259 519.0
34.1928 531.0
34.2596 597.0
34.3264 647.0
34.3933 659.0
34.4601 659.0
34.527 674.0
34.5938 688.0
34.6607 678.0
34.7275 657.0
34.7944 693.0
34.8612 647.0
34.928 674.0
34.9949 544.0
35.0617 557.0
35.1286 529.0
35.1954 504.0
35.2623 427.0
35.3291 497.0
35.396 474.0
35.4628 465.0
35.5297 463.0
35.5965 464.0
35.6633 422.0
35.7302 431.0
35.797 480.0
35.8639 453.0
35.9307 536.0
35.9976 589.0
36.0644 638.0
36.1313 712.0
36.1981 815.0
36.265 789.0
36.3318 801.0
36.3986 728.0
36.4655 735.0
36.5323 652.0
36.5992 643.0
36.666 569.0
36.7329 525.0
36.7997 504.0
36.8666 464.0
36.9334 457.0
37.0002 416.0
37.0671 454.0
37.1339 428.0
37.2008 456.0
37.2676 411.0
37.3345 434.0
37.4013 482.0
37.4682 380.0
37.535 414.0
37.6019 356.0
37.6687 445.0
37.7355 403.0
37.8024 443.0
37.8692 441.0
37.9361 403.0
38.0029 439.0
38.0698 427.0
38.1366 420.0
38.2035 460.0
38.2703 424.0
38.3371 414.0
38.404 446.0
38.4708 459.0
38.5377 476.0
38.6045 466.0
38.6714 487.0
38.7382 494.0
38.8051 521.0
38.8719 541.0
38.9388 568.0
39.0056 545.0
39.0724 613.0
39.1393 555.0
39.2061 599.0
39.273 590.0
39.3398 602.0
39.4067 621.0
39.4735 599.0
39.5404 547.0
39.6072 550.0
39.6741 502.0
39.7409 531.0
39.8077 527.0
39.8746 489.0
39.9414 465.0
40.0083 453.0
40.0751 500.0
40.142 543.0
40.2088 544.0
40.2757 586.0
40.3425 601.0
40.4093 538.0
40.4762 500.0
40.543 501.0
40.6099 518.0
40.6767 478.0
40.7436 481.0
40.8104 500.0
40.8773 486.0
40.9441 461.0
41.011 489.0
41.0778 505.0
41.1446 521.0
41.2115 550.0
41.2783 555.0
41.3452 528.0
41.412 590.0
41.4789 623.0
41.5457 596.0
41.6126 566.0
41.6794 614.0
41.7462 543.0
41.8131 543.0
41.8799 559.0
41.9468 505.0
42.0136 466.0
42.0805 439.0
42.1473 410.0
42.2142 370.0
42.281 394.0
42.3479 348.0
42.4147 402.0
42.4815 385.0
42.5484 386.0
42.6152 396.0
42.6821 388.0
42.7489 420.0
42.8158 505.0
42.8826 538.0
42.9495 597.0
43.0163 625.0
43.0831 668.0
43.15 662.0
43.2168 745.0
43.2837 716.0
43.3505 722.0
43.4174 668.0
43.4842 662.0
43.5511 635.0
43.6179 538.0
43.6848 516.0
43.7516 514.0
43.8184 539.0
43.8853 481.0
43.9521 504.0
44.019 488.0
44.0858 497.0
44.1527 494.0
44.2195 545.0
44.2864 493.0
44.3532 521.0
44.4201 536.0
44.4869 500.0
44.5537 469.0
44.6206 449.0
44.6874 436.0
44.7543 464.0
44.8211 396.0
44.888 402.0
44.9548 387.0
45.0217 414.0
45.0885 436.0
45.1553 381.0
45.2222 422.0
45.289 398.0
45.3559 400.0
45.4227 396.0
45.4896 384.0
45.5564 392.0
45.6233 435.0
45.6901 388.0
45.757 389.0
45.8238 408.0
45.8906 399.0
45.9575 406.0
46.0243 412.0
46.0912 386.0
46.158 398.0
46.2249 378.0
46.2917 356.0
46.3586 402.0
46.4254 389.0
46.4922 379.0
46.5591 360.0
46.6259 381.0
46.6928 385.0
46.7596 410.0
46.8265 360.0
46.8933 414.0
46.9602 382.0
47.027 369.0
47.0939 379.0
47.1607 395.0
47.2275 338.0
47.2944 345.0
47.3612 339.0
47.4281 372.0
47.4949 406.0
47.5618 414.0
47.6286 394.0
47.6955 411.0
47.7623 409.0
47.8291 415.0
47.896 438.0
47.9628 494.0
48.0297 478.0
48.0965 453.0
48.1634 498.0
48.2302 460.0
48.2971 491.0
48.3639 528.0
48.4308 495.0
48.4976 533.0
48.5644 529.0
48.6313 594.0
48.6981 604.0
48.765 618.0
48.8318 767.0
48.8987 806.0
48.9655 881.0
49.0324 990.0
49.0992 1049.0
49.1661 1012.0
49.2329 998.0
49.2997 873.0
49.3666 911.0
49.4334 841.0
49.5003 795.0
49.5671 695.0
49.634 662.0
49.7008 712.0
49.7677 731.0
49.8345 675.0
49.9013 721.0
49.9682 721.0
50.035 772.0
50.1019 766.0
50.1687 760.0
50.2356 703.0
50.3024 697.0
50.3693 728.0
50.4361 627.0
50.503 673.0
50.5698 616.0
50.6366 583.0
50.7035 631.0
50.7703 604.0
50.8372 626.0
50.904 679.0
50.9709 720.0
51.0377 729.0
51.1046 747.0
51.1714 732.0
51.2382 705.0
51.3051 705.0
51.3719 665.0
51.4388 678.0
51.5056 602.0
51.5725 584.0
51.6393 582.0
51.7062 535.0
51.773 536.0
51.8399 498.0
51.9067 504.0
51.9735 489.0
52.0404 489.0
52.1072 485.0
52.1741 478.0
52.2409 510.0
52.3078 493.0
52.3746 578.0
52.4415 507.0
52.5083 521.0
52.5751 526.0
52.642 490.0
52.7088 500.0
52.7757 451.0
52.8425 477.0
52.9094 434.0
52.9762 494.0
53.0431 486.0
53.1099 490.0
53.1768 542.0
53.2436 469.0
53.3104 481.0
53.3773 469.0
53.4441 457.0
53.511 420.0
53.5778 460.0
53.6447 404.0
53.7115 424.0
53.7784 415.0
53.8452 389.0
53.9121 424.0
53.9789 383.0
54.0457 424.0
54.1126 413.0
54.1794 428.0
54.2463 453.0
54.3131 464.0
54.38 475.0
54.4468 520.0
54.5137 491.0
54.5805 521.0
54.6473 514.0
54.7142 549.0
54.781 502.0
54.8479 522.0
54.9147 586.0
54.9816 583.0
55.0484 563.0
55.1153 574.0
55.1821 584.0
55.249 646.0
55.3158 611.0
55.3826 643.0
55.4495 672.0
55.5163 616.0
55.5832 642.0
55.65 670.0
55.7169 632.0
55.7837 612.0
55.8506 583.0
55.9174 586.0
55.9842 581.0
56.0511 533.0
56.1179 554.0
56.1848 471.0
56.2516 487.0
56.3185 490.0
56.3853 458.0
56.4522 418.0
56.519 414.0
56.5859 419.0
56.6527 394.0
56.7195 378.0
56.7864 400.0
56.8532 384.0
56.9201 412.0
56.9869 357.0
57.0538 406.0
57.1206 422.0
57.1875 377.0
57.2543 427.0
57.3212 368.0
57.388 376.0
57.4548 392.0
57.5217 349.0
57.5885 399.0
57.6554 411.0
57.7222 361.0
57.7891 389.0
57.8559 376.0
57.9228 353.0
57.9896 353.0
58.0564 335.0
58.1233 409.0
58.1901 360.0
58.257 341.0
58.3238 363.0
58.3907 373.0
58.4575 364.0
58.5244 353.0
58.5912 372.0
58.6581 381.0
58.7249 387.0
58.7917 391.0
58.8586 403.0
58.9254 389.0
58.9923 426.0
59.0591 409.0
59.126 430.0
59.1928 392.0
59.2597 483.0
59.3265 476.0
59.3933 510.0
59.4602 491.0
59.527 489.0
59.5939 535.0
59.6607 514.0
59.7276 522.0
59.7944 470.0
59.8613 479.0
59.9281 486.0
59.995 413.0
60.0618 482.0
60.1286 482.0
60.1955 467.0
60.2623 476.0
60.3292 458.0
60.396 469.0
60.4629 491.0
60.5297 474.0
60.5966 471.0
60.6634 457.0
60.7302 479.0
60.7971 459.0
60.8639 423.0
60.9308 435.0
60.9976 419.0
61.0645 411.0
61.1313 406.0
61.1982 408.0
61.265 403.0
61.3319 401.0
61.3987 384.0
61.4655 440.0
61.5324 410.0
61.5992 379.0
61.6661 395.0
61.7329 407.0
61.7998 417.0
61.8666 409.0
61.9335 386.0
62.0003 408.0
62.0672 404.0
62.134 413.0
62.2008 426.0
62.2677 417.0
62.3345 420.0
62.4014 439.0
62.4682 420.0
62.5351 434.0
62.6019 453.0
62.6688 410.0
62.7356 431.0
62.8024 419.0
62.8693 472.0
62.9361 438.0
63.003 403.0
63.0698 444.0
63.1367 426.0
63.2035 393.0
63.2704 423.0
63.3372 387.0
63.4041 429.0
63.4709 440.0
63.5377 440.0
63.6046 352.0
63.6714 413.0
63.7383 370.0
63.8051 416.0
63.872 407.0
63.9388 460.0
64.0057 404.0
64.0725 420.0
64.1393 467.0
64.2062 366.0
64.273 419.0
64.3399 367.0
64.4067 413.0
64.4736 425.0
64.5404 396.0
64.6073 395.0
64.6741 406.0
64.741 403.0
64.8078 372.0
64.8746 360.0
64.9415 367.0
65.0083 345.0
65.0752 366.0
65.142 354.0
65.2089 400.0
65.2757 368.0
65.3426 361.0
65.4094 393.0
65.4762 376.0
65.5431 403.0
65.6099 384.0
65.6768 434.0
65.7436 369.0
65.8105 407.0
65.8773 438.0
65.9442 415.0
66.011 488.0
66.0779 430.0
66.1447 418.0
66.2115 442.0
66.2784 439.0
66.3452 462.0
66.4121 504.0
66.4789 480.0
66.5458 505.0
66.6126 549.0
66.6795 558.0
66.7463 588.0
66.8132 620.0
66.88 650.0
66.9468 591.0
67.0137 545.0
67.0805 563.0
67.1474 519.0
67.2142 464.0
67.2811 511.0
67.3479 485.0
67.4148 457.0
67.4816 453.0
67.5484 434.0
67.6153 462.0
67.6821 466.0
67.749 479.0
67.8158 514.0
67.8827 416.0
67.9495 485.0
68.0164 433.0
68.0832 419.0
68.1501 398.0
68.2169 402.0
68.2837 440.0
68.3506 372.0
68.4174 402.0
68.4843 427.0
68.5511 400.0
68.618 387.0
68.6848 401.0
68.7517 389.0
68.8185 379.0
68.8853 370.0
68.9522 408.0
69.019 392.0
69.0859 384.0
69.1527 403.0
69.2196 417.0
69.2864 436.0
69.3533 451.0
69.4201 438.0
69.487 461.0
69.5538 480.0
69.6206 476.0
69.6875 470.0
69.7543 520.0
69.8212 527.0
69.888 589.0
69.9549 592.0
70.0217 633.0
70.0886 613.0
70.1554 622.0
70.2222 592.0
70.2891 598.0
70.3559 570.0
70.4228 533.0
70.4896 500.0
70.5565 486.0
70.6233 476.0
70.6902 456.0
70.757 416.0
70.8239 435.0
70.8907 411.0
70.9575 433.0
71.0244 409.0
71.0912 440.0
71.1581 410.0
71.2249 419.0
71.2918 426.0
71.3586 424.0
71.4255 435.0
71.4923 428.0
71.5592 494.0
71.626 479.0
71.6928 476.0
71.7597 474.0
71.8265 491.0
71.8934 460.0
71.9602 419.0
72.0271 438.0
72.0939 404.0
72.1608 418.0
72.2276 444.0
72.2944 443.0
72.3613 454.0
72.4281 464.0
72.495 522.0
72.5618 423.0
72.6287 477.0
72.6955 455.0
72.7624 488.0
72.8292 491.0
72.8961 466.0
72.9629 433.0
73.0297 414.0
73.0966 415.0
73.1634 449.0
73.2303 446.0
73.2971 433.0
73.364 419.0
73.4308 400.0
73.4977 415.0
73.5645 402.0
73.6313 416.0
73.6982 394.0
73.765 394.0
73.8319 382.0
73.8987 400.0
73.9656 365.0
74.0324 373.0
74.0993 396.0
74.1661 364.0
74.233 357.0
74.2998 353.0
74.3666 373.0
74.4335 388.0
74.5003 363.0
74.5672 395.0
74.634 363.0
74.7009 357.0
74.7677 394.0
74.8346 380.0
74.9014 363.0
74.9683 375.0
75.0351 382.0
75.1019 394.0
75.1688 388.0
75.2356 334.0
75.3025 321.0
75.3693 347.0
75.4362 373.0
75.503 330.0
75.5699 366.0
75.6367 365.0
75.7035 314.0
75.7704 304.0
75.8372 340.0
75.9041 351.0
75.9709 367.0
76.0378 297.0
76.1046 347.0
76.1715 348.0
76.2383 341.0
76.3052 345.0
76.372 324.0
76.4388 353.0
76.5057 341.0
76.5725 332.0
76.6394 329.0
76.7062 336.0
76.7731 330.0
76.8399 363.0
76.9068 320.0
76.9736 367.0
77.0404 329.0
77.1073 346.0
77.1741 371.0
77.241 385.0
77.3078 360.0
77.3747 377.0
77.4415 365.0
77.5084 401.0
77.5752 330.0
77.6421 385.0
77.7089 333.0
77.7757 347.0
77.8426 365.0
77.9094 324.0
77.9763 328.0
78.0431 321.0
78.11 310.0
78.1768 289.0
78.2437 310.0
78.3105 315.0
78.3773 303.0
78.4442 303.0
78.511 316.0
78.5779 311.0
78.6447 300.0
78.7116 282.0
78.7784 283.0
78.8453 310.0
78.9121 261.0
78.979 302.0
79.0458 301.0
79.1126 295.0
79.1795 308.0
79.2463 313.0
79.3132 269.0
79.38 260.0
79.4469 301.0
79.5137 301.0
79.5806 302.0
79.6474 316.0
79.7143 290.0
79.7811 321.0
79.8479 297.0
79.9148 305.0
79.9816 316.0
80.0485 302.0
80.1153 308.0
80.1822 331.0
80.249 286.0
80.3159 315.0
80.3827 311.0
80.4495 307.0
80.5164 313.0
80.5832 288.0
80.6501 317.0
80.7169 330.0
80.7838 328.0
80.8506 316.0
80.9175 329.0
80.9843 344.0
81.0512 335.0
81.118 338.0
81.1848 332.0
81.2517 324.0
81.3185 357.0
81.3854 305.0
81.4522 336.0
81.5191 341.0
81.5859 332.0
81.6528 310.0
81.7196 310.0
81.7864 301.0
81.8533 302.0
81.9201 271.0
81.987 292.0
82.0538 284.0
82.1207 247.0
82.1875 285.0
82.2544 266.0
82.3212 299.0
82.3881 273.0
82.4549 286.0
82.5217 266.0
82.5886 245.0
82.6554 283.0
82.7223 321.0
82.7891 263.0
82.856 300.0
82.9228 300.0
82.9897 301.0
83.0565 276.0
83.1233 269.0
83.1902 276.0
83.257 298.0
83.3239 302.0
83.3907 260.0
83.4576 274.0
83.5244 240.0
83.5913 261.0
83.6581 263.0
83.725 277.0
83.7918 264.0
83.8586 278.0
83.9255 278.0
83.9923 294.0
84.0592 285.0
84.126 257.0
84.1929 264.0
84.2597 278.0
84.3266 253.0
84.3934 250.0
84.4603 277.0
84.5271 264.0
84.5939 273.0
84.6608 256.0
84.7276 291.0
84.7945 282.0
84.8613 279.0
84.9282 252.0
84.995 259.0
85.0619 238.0
85.1287 247.0
85.1955 248.0
85.2624 243.0
85.3292 258.0
85.3961 236.0
85.4629 237.0
85.5298 241.0
85.5966 253.0
85.6635 231.0
85.7303 239.0
85.7972 261.0
85.864 277.0
85.9308 237.0
85.9977 221.0
86.0645 228.0
86.1314 220.0
86.1982 246.0
86.2651 225.0
86.3319 239.0
86.3988 223.0
86.4656 211.0
86.5324 222.0
86.5993 237.0
86.6661 237.0
86.733 236.0
86.7998 219.0
86.8667 224.0
86.9335 225.0
87.0004 220.0
87.0672 217.0
87.1341 235.0
87.2009 231.0
87.2677 241.0
87.3346 232.0
87.4014 232.0
87.4683 199.0
87.5351 238.0
87.602 210.0
87.6688 213.0
87.7357 203.0
87.8025 212.0
87.8693 224.0
87.9362 221.0
88.003 241.0
88.0699 229.0
88.1367 216.0
88.2036 231.0
88.2704 223.0
88.3373 205.0
88.4041 215.0
88.471 189.0
88.5378 204.0
88.6046 231.0
88.6715 231.0
88.7383 188.0
88.8052 226.0
88.872 223.0
88.9389 213.0
89.0057 227.0
89.0726 242.0
89.1394 242.0
89.2063 216.0
89.2731 228.0
89.3399 215.0
89.4068 224.0
89.4736 212.0
89.5405 219.0
89.6073 220.0
89.6742 229.0
89.741 205.0
89.8079 213.0
89.8747 209.0
89.9415 183.0