File: code/XRD_Analysis/External Sources/Fabian/SAPO-18/5-90_step0_016_1h_20240108_SAPO-18_zero_BG_holder_grob.xy
4.98146 888.0
5.0483 853.0
5.11515 808.0
5.18199 819.0
5.24884 791.0
5.31568 831.0
5.38253 790.0
5.44937 748.0
5.51622 696.0
5.58306 742.0
5.64991 730.0
5.71675 750.0
5.7836 706.0
5.85044 710.0
5.91729 693.0
5.98413 633.0
6.05098 633.0
6.11782 646.0
6.18467 622.0
6.25151 645.0
6.31836 604.0
6.3852 603.0
6.45205 581.0
6.51889 538.0
6.58574 650.0
6.65258 560.0
6.71943 557.0
6.78627 612.0
6.85312 545.0
6.91996 571.0
6.98681 568.0
7.05365 558.0
7.1205 528.0
7.18734 524.0
7.25419 518.0
7.32103 542.0
7.38788 540.0
7.45472 538.0
7.52157 483.0
7.58841 524.0
7.65526 505.0
7.7221 501.0
7.78895 512.0
7.85579 491.0
7.92264 498.0
7.98948 451.0
8.05633 435.0
8.12317 466.0
8.19002 454.0
8.25686 474.0
8.32371 475.0
8.39055 466.0
8.4574 465.0
8.52424 473.0
8.59109 443.0
8.65793 435.0
8.72478 441.0
8.79162 419.0
8.85847 454.0
8.92532 425.0
8.99216 465.0
9.05901 448.0
9.12585 446.0
9.1927 460.0
9.25954 438.0
9.32639 475.0
9.39323 494.0
9.46008 620.0
9.52692 662.0
9.59377 771.0
9.66061 853.0
9.72746 998.0
9.7943 1297.0
9.86115 1542.0
9.92799 1766.0
9.99484 1716.0
10.0617 1497.0
10.1285 1207.0
10.1954 876.0
10.2622 613.0
10.3291 517.0
10.3959 478.0
10.4628 438.0
10.5296 423.0
10.5964 399.0
10.6633 425.0
10.7301 399.0
10.797 477.0
10.8638 469.0
10.9307 492.0
10.9975 524.0
11.0644 493.0
11.1312 470.0
11.198 436.0
11.2649 411.0
11.3317 434.0
11.3986 376.0
11.4654 358.0
11.5323 388.0
11.5991 335.0
11.666 381.0
11.7328 333.0
11.7997 302.0
11.8665 310.0
11.9333 279.0
12.0002 301.0
12.067 295.0
12.1339 325.0
12.2007 268.0
12.2676 310.0
12.3344 324.0
12.4013 243.0
12.4681 277.0
12.5349 272.0
12.6018 268.0
12.6686 289.0
12.7355 298.0
12.8023 330.0
12.8692 299.0
12.936 285.0
13.0029 338.0
13.0697 321.0
13.1366 382.0
13.2034 346.0
13.2702 363.0
13.3371 383.0
13.4039 382.0
13.4708 329.0
13.5376 310.0
13.6045 345.0
13.6713 277.0
13.7382 282.0
13.805 289.0
13.8719 275.0
13.9387 264.0
14.0055 299.0
14.0724 287.0
14.1392 286.0
14.2061 340.0
14.2729 337.0
14.3398 364.0
14.4066 336.0
14.4735 366.0
14.5403 345.0
14.6071 297.0
14.674 253.0
14.7408 268.0
14.8077 269.0
14.8745 300.0
14.9414 316.0
15.0082 319.0
15.0751 351.0
15.1419 392.0
15.2088 370.0
15.2756 353.0
15.3424 356.0
15.4093 285.0
15.4761 328.0
15.543 309.0
15.6098 330.0
15.6767 323.0
15.7435 383.0
15.8104 396.0
15.8772 485.0
15.944 563.0
16.0109 603.0
16.0777 739.0
16.1446 730.0
16.2114 774.0
16.2783 792.0
16.3451 816.0
16.412 826.0
16.4788 723.0
16.5457 704.0
16.6125 583.0
16.6793 569.0
16.7462 590.0
16.813 554.0
16.8799 669.0
16.9467 768.0
17.0136 912.0
17.0804 1012.0
17.1473 1246.0
17.2141 1456.0
17.2809 1649.0
17.3478 1762.0
17.4146 1715.0
17.4815 1534.0
17.5483 1369.0
17.6152 1088.0
17.682 929.0
17.7489 848.0
17.8157 762.0
17.8826 633.0
17.9494 550.0
18.0162 545.0
18.0831 462.0
18.1499 444.0
18.2168 441.0
18.2836 414.0
18.3505 388.0
18.4173 305.0
18.4842 304.0
18.551 252.0
18.6179 252.0
18.6847 289.0
18.7515 259.0
18.8184 280.0
18.8852 271.0
18.9521 271.0
19.0189 279.0
19.0858 258.0
19.1526 264.0
19.2195 313.0
19.2863 300.0
19.3531 326.0
19.42 351.0
19.4868 388.0
19.5537 423.0
19.6205 448.0
19.6874 453.0
19.7542 501.0
19.8211 537.0
19.8879 563.0
19.9548 619.0
20.0216 694.0
20.0884 643.0
20.1553 714.0
20.2221 678.0
20.289 762.0
20.3558 809.0
20.4227 872.0
20.4895 849.0
20.5564 875.0
20.6232 868.0
20.69 822.0
20.7569 900.0
20.8237 942.0
20.8906 1020.0
20.9574 1084.0
21.0243 1059.0
21.0911 1095.0
21.158 1117.0
21.2248 1038.0
21.2917 1054.0
21.3585 1122.0
21.4253 994.0
21.4922 995.0
21.559 1012.0
21.6259 1018.0
21.6927 893.0
21.7596 878.0
21.8264 838.0
21.8933 693.0
21.9601 675.0
22.0269 574.0
22.0938 549.0
22.1606 581.0
22.2275 524.0
22.2943 496.0
22.3612 492.0
22.428 464.0
22.4949 427.0
22.5617 431.0
22.6286 350.0
22.6954 388.0
22.7622 346.0
22.8291 351.0
22.8959 353.0
22.9628 391.0
23.0296 330.0
23.0965 337.0
23.1633 308.0
23.2302 315.0
23.297 307.0
23.3639 340.0
23.4307 318.0
23.4975 379.0
23.5644 376.0
23.6312 373.0
23.6981 415.0
23.7649 444.0
23.8318 531.0
23.8986 599.0
23.9655 619.0
24.0323 666.0
24.0991 751.0
24.166 868.0
24.2328 899.0
24.2997 951.0
24.3665 891.0
24.4334 821.0
24.5002 761.0
24.5671 685.0
24.6339 680.0
24.7008 666.0
24.7676 587.0
24.8344 542.0
24.9013 486.0
24.9681 473.0
25.035 471.0
25.1018 450.0
25.1687 402.0
25.2355 397.0
25.3024 409.0
25.3692 404.0
25.436 389.0
25.5029 403.0
25.5697 408.0
25.6366 442.0
25.7034 470.0
25.7703 527.0
25.8371 497.0
25.904 576.0
25.9708 625.0
26.0377 636.0
26.1045 686.0
26.1713 697.0
26.2382 691.0
26.305 807.0
26.3719 803.0
26.4387 850.0
26.5056 955.0
26.5724 991.0
26.6393 962.0
26.7061 949.0
26.773 859.0
26.8398 757.0
26.9066 701.0
26.9735 666.0
27.0403 620.0
27.1072 572.0
27.174 532.0
27.2409 465.0
27.3077 459.0
27.3746 395.0
27.4414 393.0
27.5082 372.0
27.5751 415.0
27.6419 440.0
27.7088 435.0
27.7756 460.0
27.8425 560.0
27.9093 613.0
27.9762 651.0
28.043 689.0
28.1099 779.0
28.1767 806.0
28.2435 795.0
28.3104 797.0
28.3772 744.0
28.4441 704.0
28.5109 633.0
28.5778 509.0
28.6446 466.0
28.7115 432.0
28.7783 393.0
28.8451 347.0
28.912 328.0
28.9788 352.0
29.0457 341.0
29.1125 332.0
29.1794 328.0
29.2462 360.0
29.3131 388.0
29.3799 407.0
29.4468 411.0
29.5136 423.0
29.5804 431.0
29.6473 423.0
29.7141 435.0
29.781 456.0
29.8478 509.0
29.9147 551.0
29.9815 531.0
30.0484 592.0
30.1152 686.0
30.182 706.0
30.2489 723.0
30.3157 756.0
30.3826 875.0
30.4494 915.0
30.5163 934.0
30.5831 941.0
30.65 934.0
30.7168 918.0
30.7837 909.0
30.8505 924.0
30.9173 893.0
30.9842 1002.0
31.051 963.0
31.1179 1111.0
31.1847 1138.0
31.2516 1220.0
31.3184 1151.0
31.3853 1163.0
31.4521 1109.0
31.519 1059.0
31.5858 862.0
31.6526 771.0
31.7195 725.0
31.7863 685.0
31.8532 666.0
31.92 695.0
31.9869 688.0
32.0537 701.0
32.1206 735.0
32.1874 799.0
32.2542 868.0
32.3211 852.0
32.3879 954.0
32.4548 994.0
32.5216 1044.0
32.5885 1015.0
32.6553 1000.0
32.7222 1037.0
32.789 980.0
32.8559 908.0
32.9227 847.0
32.9895 838.0
33.0564 757.0
33.1232 675.0
33.1901 606.0
33.2569 581.0
33.3238 567.0
33.3906 505.0
33.4575 505.0
33.5243 455.0
33.5911 438.0
33.658 370.0
33.7248 392.0
33.7917 418.0
33.8585 358.0
33.9254 342.0
33.9922 341.0
34.0591 286.0
34.1259 292.0
34.1928 270.0
34.2596 310.0
34.3264 286.0
34.3933 293.0
34.4601 365.0
34.527 336.0
34.5938 323.0
34.6607 346.0
34.7275 335.0
34.7944 318.0
34.8612 335.0
34.928 367.0
34.9949 324.0
35.0617 338.0
35.1286 331.0
35.1954 294.0
35.2623 302.0
35.3291 300.0
35.396 294.0
35.4628 268.0
35.5297 284.0
35.5965 269.0
35.6633 237.0
35.7302 268.0
35.797 267.0
35.8639 261.0
35.9307 252.0
35.9976 253.0
36.0644 268.0
36.1313 298.0
36.1981 369.0
36.265 393.0
36.3318 375.0
36.3986 403.0
36.4655 375.0
36.5323 420.0
36.5992 352.0
36.666 365.0
36.7329 344.0
36.7997 285.0
36.8666 278.0
36.9334 310.0
37.0002 258.0
37.0671 247.0
37.1339 264.0
37.2008 255.0
37.2676 244.0
37.3345 254.0
37.4013 254.0
37.4682 219.0
37.535 266.0
37.6019 257.0
37.6687 232.0
37.7355 259.0
37.8024 233.0
37.8692 238.0
37.9361 208.0
38.0029 224.0
38.0698 236.0
38.1366 225.0
38.2035 219.0
38.2703 223.0
38.3371 216.0
38.404 246.0
38.4708 262.0
38.5377 245.0
38.6045 226.0
38.6714 232.0
38.7382 256.0
38.8051 237.0
38.8719 277.0
38.9388 276.0
39.0056 277.0
39.0724 287.0
39.1393 285.0
39.2061 293.0
39.273 335.0
39.3398 377.0
39.4067 350.0
39.4735 332.0
39.5404 348.0
39.6072 336.0
39.6741 301.0
39.7409 294.0
39.8077 285.0
39.8746 305.0
39.9414 288.0
40.0083 313.0
40.0751 294.0
40.142 283.0
40.2088 297.0
40.2757 306.0
40.3425 320.0
40.4093 315.0
40.4762 337.0
40.543 315.0
40.6099 306.0
40.6767 330.0
40.7436 313.0
40.8104 313.0
40.8773 306.0
40.9441 273.0
41.011 291.0
41.0778 271.0
41.1446 271.0
41.2115 279.0
41.2783 282.0
41.3452 321.0
41.412 310.0
41.4789 348.0
41.5457 351.0
41.6126 313.0
41.6794 340.0
41.7462 369.0
41.8131 370.0
41.8799 308.0
41.9468 326.0
42.0136 373.0
42.0805 311.0
42.1473 330.0
42.2142 298.0
42.281 260.0
42.3479 269.0
42.4147 244.0
42.4815 248.0
42.5484 263.0
42.6152 241.0
42.6821 231.0
42.7489 258.0
42.8158 259.0
42.8826 257.0
42.9495 290.0
43.0163 282.0
43.0831 361.0
43.15 330.0
43.2168 351.0
43.2837 404.0
43.3505 441.0
43.4174 436.0
43.4842 380.0
43.5511 366.0
43.6179 393.0
43.6848 360.0
43.7516 362.0
43.8184 325.0
43.8853 331.0
43.9521 304.0
44.019 331.0
44.0858 310.0
44.1527 307.0
44.2195 333.0
44.2864 319.0
44.3532 342.0
44.4201 307.0
44.4869 351.0
44.5537 339.0
44.6206 335.0
44.6874 282.0
44.7543 288.0
44.8211 293.0
44.888 238.0
44.9548 276.0
45.0217 271.0
45.0885 266.0
45.1553 275.0
45.2222 260.0
45.289 240.0
45.3559 279.0
45.4227 242.0
45.4896 290.0
45.5564 227.0
45.6233 283.0
45.6901 287.0
45.757 242.0
45.8238 242.0
45.8906 269.0
45.9575 228.0
46.0243 251.0
46.0912 258.0
46.158 235.0
46.2249 225.0
46.2917 262.0
46.3586 267.0
46.4254 212.0
46.4922 268.0
46.5591 245.0
46.6259 236.0
46.6928 244.0
46.7596 228.0
46.8265 226.0
46.8933 243.0
46.9602 252.0
47.027 255.0
47.0939 251.0
47.1607 226.0
47.2275 239.0
47.2944 253.0
47.3612 217.0
47.4281 215.0
47.4949 233.0
47.5618 244.0
47.6286 257.0
47.6955 261.0
47.7623 273.0
47.8291 248.0
47.896 259.0
47.9628 261.0
48.0297 317.0
48.0965 289.0
48.1634 308.0
48.2302 272.0
48.2971 267.0
48.3639 299.0
48.4308 311.0
48.4976 320.0
48.5644 297.0
48.6313 332.0
48.6981 328.0
48.765 385.0
48.8318 384.0
48.8987 442.0
48.9655 481.0
49.0324 509.0
49.0992 558.0
49.1661 613.0
49.2329 614.0
49.2997 633.0
49.3666 623.0
49.4334 626.0
49.5003 565.0
49.5671 526.0
49.634 488.0
49.7008 510.0
49.7677 505.0
49.8345 447.0
49.9013 462.0
49.9682 461.0
50.035 479.0
50.1019 532.0
50.1687 493.0
50.2356 471.0
50.3024 446.0
50.3693 460.0
50.4361 472.0
50.503 445.0
50.5698 478.0
50.6366 455.0
50.7035 467.0
50.7703 398.0
50.8372 398.0
50.904 429.0
50.9709 396.0
51.0377 476.0
51.1046 478.0
51.1714 490.0
51.2382 496.0
51.3051 458.0
51.3719 465.0
51.4388 448.0
51.5056 440.0
51.5725 411.0
51.6393 380.0
51.7062 427.0
51.773 361.0
51.8399 340.0
51.9067 355.0
51.9735 332.0
52.0404 352.0
52.1072 342.0
52.1741 314.0
52.2409 324.0
52.3078 334.0
52.3746 329.0
52.4415 360.0
52.5083 338.0
52.5751 326.0
52.642 319.0
52.7088 316.0
52.7757 326.0
52.8425 369.0
52.9094 305.0
52.9762 335.0
53.0431 322.0
53.1099 336.0
53.1768 334.0
53.2436 326.0
53.3104 341.0
53.3773 324.0
53.4441 300.0
53.511 318.0
53.5778 286.0
53.6447 310.0
53.7115 274.0
53.7784 263.0
53.8452 270.0
53.9121 286.0
53.9789 298.0
54.0457 302.0
54.1126 297.0
54.1794 291.0
54.2463 276.0
54.3131 319.0
54.38 288.0
54.4468 288.0
54.5137 362.0
54.5805 361.0
54.6473 340.0
54.7142 366.0
54.781 346.0
54.8479 372.0
54.9147 373.0
54.9816 335.0
55.0484 409.0
55.1153 407.0
55.1821 364.0
55.249 368.0
55.3158 399.0
55.3826 434.0
55.4495 420.0
55.5163 463.0
55.5832 424.0
55.65 426.0
55.7169 439.0
55.7837 401.0
55.8506 445.0
55.9174 418.0
55.9842 418.0
56.0511 465.0
56.1179 397.0
56.1848 388.0
56.2516 418.0
56.3185 350.0
56.3853 339.0
56.4522 345.0
56.519 339.0
56.5859 304.0
56.6527 284.0
56.7195 318.0
56.7864 282.0
56.8532 280.0
56.9201 259.0
56.9869 253.0
57.0538 288.0
57.1206 299.0
57.1875 267.0
57.2543 282.0
57.3212 271.0
57.388 284.0
57.4548 293.0
57.5217 283.0
57.5885 322.0
57.6554 261.0
57.7222 241.0
57.7891 244.0
57.8559 271.0
57.9228 288.0
57.9896 224.0
58.0564 242.0
58.1233 279.0
58.1901 274.0
58.257 261.0
58.3238 262.0
58.3907 256.0
58.4575 253.0
58.5244 257.0
58.5912 240.0
58.6581 309.0
58.7249 292.0
58.7917 258.0
58.8586 288.0
58.9254 288.0
58.9923 262.0
59.0591 287.0
59.126 303.0
59.1928 270.0
59.2597 309.0
59.3265 320.0
59.3933 334.0
59.4602 333.0
59.527 357.0
59.5939 385.0
59.6607 381.0
59.7276 368.0
59.7944 330.0
59.8613 368.0
59.9281 328.0
59.995 351.0
60.0618 354.0
60.1286 318.0
60.1955 311.0
60.2623 337.0
60.3292 357.0
60.396 323.0
60.4629 328.0
60.5297 338.0
60.5966 361.0
60.6634 340.0
60.7302 395.0
60.7971 352.0
60.8639 324.0
60.9308 307.0
60.9976 291.0
61.0645 354.0
61.1313 322.0
61.1982 326.0
61.265 293.0
61.3319 302.0
61.3987 289.0
61.4655 279.0
61.5324 321.0
61.5992 299.0
61.6661 315.0
61.7329 307.0
61.7998 316.0
61.8666 294.0
61.9335 292.0
62.0003 276.0
62.0672 292.0
62.134 305.0
62.2008 299.0
62.2677 307.0
62.3345 317.0
62.4014 307.0
62.4682 293.0
62.5351 319.0
62.6019 321.0
62.6688 308.0
62.7356 355.0
62.8024 314.0
62.8693 335.0
62.9361 306.0
63.003 287.0
63.0698 334.0
63.1367 298.0
63.2035 314.0
63.2704 291.0
63.3372 332.0
63.4041 314.0
63.4709 318.0
63.5377 333.0
63.6046 298.0
63.6714 289.0
63.7383 293.0
63.8051 339.0
63.872 318.0
63.9388 319.0
64.0057 324.0
64.0725 331.0
64.1393 319.0
64.2062 300.0
64.273 315.0
64.3399 320.0
64.4067 298.0
64.4736 351.0
64.5404 294.0
64.6073 292.0
64.6741 310.0
64.741 286.0
64.8078 291.0
64.8746 283.0
64.9415 285.0
65.0083 237.0
65.0752 277.0
65.142 258.0
65.2089 284.0
65.2757 258.0
65.3426 274.0
65.4094 252.0
65.4762 271.0
65.5431 286.0
65.6099 275.0
65.6768 282.0
65.7436 297.0
65.8105 311.0
65.8773 290.0
65.9442 306.0
66.011 308.0
66.0779 300.0
66.1447 352.0
66.2115 349.0
66.2784 363.0
66.3452 325.0
66.4121 367.0
66.4789 353.0
66.5458 371.0
66.6126 363.0
66.6795 384.0
66.7463 427.0
66.8132 495.0
66.88 432.0
66.9468 464.0
67.0137 455.0
67.0805 426.0
67.1474 410.0
67.2142 427.0
67.2811 395.0
67.3479 385.0
67.4148 386.0
67.4816 360.0
67.5484 380.0
67.6153 395.0
67.6821 334.0
67.749 367.0
67.8158 362.0
67.8827 342.0
67.9495 361.0
68.0164 335.0
68.0832 331.0
68.1501 332.0
68.2169 316.0
68.2837 319.0
68.3506 288.0
68.4174 341.0
68.4843 288.0
68.5511 253.0
68.618 291.0
68.6848 292.0
68.7517 313.0
68.8185 290.0
68.8853 308.0
68.9522 317.0
69.019 292.0
69.0859 298.0
69.1527 304.0
69.2196 322.0
69.2864 321.0
69.3533 317.0
69.4201 331.0
69.487 335.0
69.5538 339.0
69.6206 345.0
69.6875 369.0
69.7543 396.0
69.8212 432.0
69.888 413.0
69.9549 460.0
70.0217 447.0
70.0886 518.0
70.1554 478.0
70.2222 483.0
70.2891 517.0
70.3559 508.0
70.4228 439.0
70.4896 441.0
70.5565 438.0
70.6233 384.0
70.6902 365.0
70.757 375.0
70.8239 306.0
70.8907 337.0
70.9575 361.0
71.0244 331.0
71.0912 360.0
71.1581 354.0
71.2249 357.0
71.2918 352.0
71.3586 354.0
71.4255 407.0
71.4923 328.0
71.5592 361.0
71.626 355.0
71.6928 346.0
71.7597 407.0
71.8265 410.0
71.8934 335.0
71.9602 386.0
72.0271 335.0
72.0939 364.0
72.1608 372.0
72.2276 369.0
72.2944 412.0
72.3613 384.0
72.4281 352.0
72.495 375.0
72.5618 427.0
72.6287 347.0
72.6955 399.0
72.7624 384.0
72.8292 371.0
72.8961 415.0
72.9629 392.0
73.0297 347.0
73.0966 393.0
73.1634 410.0
73.2303 361.0
73.2971 369.0
73.364 377.0
73.4308 367.0
73.4977 356.0
73.5645 397.0
73.6313 330.0
73.6982 350.0
73.765 362.0
73.8319 334.0
73.8987 321.0
73.9656 317.0
74.0324 371.0
74.0993 346.0
74.1661 313.0
74.233 354.0
74.2998 297.0
74.3666 325.0
74.4335 278.0
74.5003 316.0
74.5672 298.0
74.634 329.0
74.7009 295.0
74.7677 319.0
74.8346 286.0
74.9014 289.0
74.9683 314.0
75.0351 303.0
75.1019 331.0
75.1688 324.0
75.2356 309.0
75.3025 288.0
75.3693 293.0
75.4362 302.0
75.503 321.0
75.5699 285.0
75.6367 298.0
75.7035 287.0
75.7704 290.0
75.8372 280.0
75.9041 288.0
75.9709 283.0
76.0378 266.0
76.1046 308.0
76.1715 301.0
76.2383 266.0
76.3052 277.0
76.372 302.0
76.4388 331.0
76.5057 278.0
76.5725 272.0
76.6394 292.0
76.7062 286.0
76.7731 320.0
76.8399 280.0
76.9068 292.0
76.9736 314.0
77.0404 273.0
77.1073 314.0
77.1741 307.0
77.241 303.0
77.3078 287.0
77.3747 304.0
77.4415 311.0
77.5084 271.0
77.5752 308.0
77.6421 286.0
77.7089 275.0
77.7757 295.0
77.8426 255.0
77.9094 302.0
77.9763 256.0
78.0431 305.0
78.11 277.0
78.1768 288.0
78.2437 277.0
78.3105 283.0
78.3773 268.0
78.4442 236.0
78.511 273.0
78.5779 284.0
78.6447 270.0
78.7116 263.0
78.7784 238.0
78.8453 260.0
78.9121 276.0
78.979 243.0
79.0458 286.0
79.1126 277.0
79.1795 255.0
79.2463 258.0
79.3132 259.0
79.38 280.0
79.4469 269.0
79.5137 287.0
79.5806 242.0
79.6474 267.0
79.7143 273.0
79.7811 264.0
79.8479 266.0
79.9148 276.0
79.9816 290.0
80.0485 232.0
80.1153 277.0
80.1822 257.0
80.249 248.0
80.3159 282.0
80.3827 294.0
80.4495 239.0
80.5164 254.0
80.5832 286.0
80.6501 282.0
80.7169 268.0
80.7838 293.0
80.8506 291.0
80.9175 251.0
80.9843 301.0
81.0512 269.0
81.118 244.0
81.1848 273.0
81.2517 282.0
81.3185 291.0
81.3854 307.0
81.4522 294.0
81.5191 273.0
81.5859 269.0
81.6528 282.0
81.7196 254.0
81.7864 262.0
81.8533 262.0
81.9201 273.0
81.987 267.0
82.0538 267.0
82.1207 251.0
82.1875 277.0
82.2544 226.0
82.3212 258.0
82.3881 254.0
82.4549 229.0
82.5217 243.0
82.5886 254.0
82.6554 275.0
82.7223 256.0
82.7891 246.0
82.856 275.0
82.9228 242.0
82.9897 258.0
83.0565 237.0
83.1233 227.0
83.1902 253.0
83.257 268.0
83.3239 201.0
83.3907 259.0
83.4576 255.0
83.5244 217.0
83.5913 233.0
83.6581 246.0
83.725 213.0
83.7918 261.0
83.8586 205.0
83.9255 248.0
83.9923 228.0
84.0592 233.0
84.126 298.0
84.1929 236.0
84.2597 242.0
84.3266 225.0
84.3934 244.0
84.4603 241.0
84.5271 229.0
84.5939 236.0
84.6608 238.0
84.7276 254.0
84.7945 238.0
84.8613 241.0
84.9282 221.0
84.995 242.0
85.0619 231.0
85.1287 236.0
85.1955 243.0
85.2624 257.0
85.3292 223.0
85.3961 213.0
85.4629 204.0
85.5298 217.0
85.5966 183.0
85.6635 211.0
85.7303 231.0
85.7972 231.0
85.864 217.0
85.9308 211.0
85.9977 213.0
86.0645 198.0
86.1314 219.0
86.1982 181.0
86.2651 213.0
86.3319 197.0
86.3988 183.0
86.4656 216.0
86.5324 209.0
86.5993 169.0
86.6661 196.0
86.733 203.0
86.7998 207.0
86.8667 184.0
86.9335 216.0
87.0004 210.0
87.0672 194.0
87.1341 217.0
87.2009 214.0
87.2677 200.0
87.3346 181.0
87.4014 213.0
87.4683 179.0
87.5351 198.0
87.602 231.0
87.6688 232.0
87.7357 184.0
87.8025 225.0
87.8693 196.0
87.9362 209.0
88.003 207.0
88.0699 178.0
88.1367 193.0
88.2036 179.0
88.2704 189.0
88.3373 186.0
88.4041 188.0
88.471 205.0
88.5378 195.0
88.6046 205.0
88.6715 179.0
88.7383 176.0
88.8052 206.0
88.872 199.0
88.9389 210.0
89.0057 184.0
89.0726 191.0
89.1394 221.0
89.2063 239.0
89.2731 177.0
89.3399 210.0
89.4068 220.0
89.4736 198.0
89.5405 184.0
89.6073 192.0
89.6742 213.0
89.741 205.0
89.8079 160.0
89.8747 174.0
89.9415 191.0