File: code/XRD_Analysis/Zeolites/data_files/SAPO-14/calc/20241105_SAPO-14-4_calc_Probe-2.xy
4.98146 1026.0
5.0483 1007.0
5.11515 972.0
5.18199 919.0
5.24884 933.0
5.31568 934.0
5.38253 946.0
5.44937 844.0
5.51622 835.0
5.58306 845.0
5.64991 788.0
5.71675 847.0
5.7836 735.0
5.85044 803.0
5.91729 820.0
5.98413 830.0
6.05098 753.0
6.11782 734.0
6.18467 772.0
6.25151 763.0
6.31836 729.0
6.3852 720.0
6.45205 760.0
6.51889 700.0
6.58574 720.0
6.65258 743.0
6.71943 735.0
6.78627 740.0
6.85312 711.0
6.91996 692.0
6.98681 649.0
7.05365 688.0
7.1205 696.0
7.18734 667.0
7.25419 662.0
7.32103 644.0
7.38788 630.0
7.45472 622.0
7.52157 679.0
7.58841 659.0
7.65526 632.0
7.7221 656.0
7.78895 719.0
7.85579 837.0
7.92264 802.0
7.98948 691.0
8.05633 634.0
8.12317 643.0
8.19002 613.0
8.25686 626.0
8.32371 657.0
8.39055 638.0
8.4574 642.0
8.52424 731.0
8.59109 731.0
8.65793 731.0
8.72478 868.0
8.79162 1328.0
8.85847 2708.0
8.92532 7946.0
8.99216 10422.0
9.05901 4148.0
9.12585 1540.0
9.1927 1022.0
9.25954 773.0
9.32639 700.0
9.39323 833.0
9.46008 1300.0
9.52692 1894.0
9.59377 1152.0
9.66061 717.0
9.72746 582.0
9.7943 522.0
9.86115 493.0
9.92799 527.0
9.99484 491.0
10.0617 511.0
10.1285 488.0
10.1954 512.0
10.2622 521.0
10.3291 520.0
10.3959 508.0
10.4628 502.0
10.5296 492.0
10.5964 478.0
10.6633 480.0
10.7301 466.0
10.797 527.0
10.8638 609.0
10.9307 814.0
10.9975 957.0
11.0644 804.0
11.1312 1177.0
11.198 1852.0
11.2649 1107.0
11.3317 544.0
11.3986 517.0
11.4654 462.0
11.5323 438.0
11.5991 466.0
11.666 456.0
11.7328 541.0
11.7997 505.0
11.8665 993.0
11.9333 2268.0
12.0002 2616.0
12.067 1112.0
12.1339 548.0
12.2007 473.0
12.2676 456.0
12.3344 394.0
12.4013 440.0
12.4681 439.0
12.5349 411.0
12.6018 464.0
12.6686 465.0
12.7355 428.0
12.8023 445.0
12.8692 556.0
12.936 1009.0
13.0029 956.0
13.0697 1520.0
13.1366 4773.0
13.2034 4230.0
13.2702 1466.0
13.3371 735.0
13.4039 598.0
13.4708 576.0
13.5376 841.0
13.6045 1949.0
13.6713 4944.0
13.7382 3966.0
13.805 1424.0
13.8719 708.0
13.9387 648.0
14.0055 855.0
14.0724 1162.0
14.1392 1047.0
14.2061 1059.0
14.2729 961.0
14.3398 602.0
14.4066 557.0
14.4735 534.0
14.5403 521.0
14.6071 419.0
14.674 382.0
14.7408 422.0
14.8077 389.0
14.8745 353.0
14.9414 368.0
15.0082 345.0
15.0751 342.0
15.1419 356.0
15.2088 325.0
15.2756 377.0
15.3424 392.0
15.4093 387.0
15.4761 430.0
15.543 875.0
15.6098 2375.0
15.6767 1584.0
15.7435 703.0
15.8104 495.0
15.8772 453.0
15.944 416.0
16.0109 431.0
16.0777 551.0
16.1446 708.0
16.2114 573.0
16.2783 837.0
16.3451 1035.0
16.412 623.0
16.4788 423.0
16.5457 485.0
16.6125 512.0
16.6793 563.0
16.7462 478.0
16.813 353.0
16.8799 357.0
16.9467 358.0
17.0136 371.0
17.0804 306.0
17.1473 360.0
17.2141 325.0
17.2809 396.0
17.3478 403.0
17.4146 402.0
17.4815 432.0
17.5483 467.0
17.6152 510.0
17.682 483.0
17.7489 518.0
17.8157 756.0
17.8826 894.0
17.9494 1425.0
18.0162 4346.0
18.0831 7895.0
18.1499 4558.0
18.2168 2127.0
18.2836 1568.0
18.3505 1492.0
18.4173 1398.0
18.4842 729.0
18.551 487.0
18.6179 411.0
18.6847 400.0
18.7515 410.0
18.8184 425.0
18.8852 479.0
18.9521 791.0
19.0189 1554.0
19.0858 1128.0
19.1526 761.0
19.2195 566.0
19.2863 458.0
19.3531 423.0
19.42 424.0
19.4868 493.0
19.5537 710.0
19.6205 1163.0
19.6874 2108.0
19.7542 1823.0
19.8211 838.0
19.8879 524.0
19.9548 506.0
20.0216 451.0
20.0884 440.0
20.1553 482.0
20.2221 508.0
20.289 488.0
20.3558 559.0
20.4227 591.0
20.4895 766.0
20.5564 1814.0
20.6232 1916.0
20.69 1309.0
20.7569 1422.0
20.8237 1054.0
20.8906 725.0
20.9574 616.0
21.0243 1012.0
21.0911 1754.0
21.158 1425.0
21.2248 908.0
21.2917 1096.0
21.3585 1891.0
21.4253 2308.0
21.4922 1453.0
21.559 945.0
21.6259 757.0
21.6927 995.0
21.7596 1462.0
21.8264 1894.0
21.8933 2664.0
21.9601 3240.0
22.0269 2150.0
22.0938 1993.0
22.1606 2377.0
22.2275 1732.0
22.2943 960.0
22.3612 802.0
22.428 728.0
22.4949 768.0
22.5617 1122.0
22.6286 2141.0
22.6954 2228.0
22.7622 1199.0
22.8291 703.0
22.8959 722.0
22.9628 689.0
23.0296 556.0
23.0965 600.0
23.1633 748.0
23.2302 1248.0
23.297 1556.0
23.3639 1185.0
23.4307 903.0
23.4975 810.0
23.5644 611.0
23.6312 589.0
23.6981 521.0
23.7649 441.0
23.8318 443.0
23.8986 465.0
23.9655 522.0
24.0323 647.0
24.0991 987.0
24.166 986.0
24.2328 753.0
24.2997 553.0
24.3665 469.0
24.4334 396.0
24.5002 378.0
24.5671 440.0
24.6339 414.0
24.7008 395.0
24.7676 453.0
24.8344 611.0
24.9013 750.0
24.9681 1143.0
25.035 1290.0
25.1018 1045.0
25.1687 773.0
25.2355 639.0
25.3024 753.0
25.3692 891.0
25.436 807.0
25.5029 616.0
25.5697 518.0
25.6366 564.0
25.7034 595.0
25.7703 529.0
25.8371 511.0
25.904 583.0
25.9708 882.0
26.0377 771.0
26.1045 667.0
26.1713 672.0
26.2382 557.0
26.305 576.0
26.3719 836.0
26.4387 1658.0
26.5056 2078.0
26.5724 1659.0
26.6393 2444.0
26.7061 2354.0
26.773 1455.0
26.8398 970.0
26.9066 824.0
26.9735 705.0
27.0403 555.0
27.1072 648.0
27.174 909.0
27.2409 1880.0
27.3077 3362.0
27.3746 4958.0
27.4414 6529.0
27.5082 4158.0
27.5751 2606.0
27.6419 1996.0
27.7088 1310.0
27.7756 847.0
27.8425 597.0
27.9093 545.0
27.9762 575.0
28.043 871.0
28.1099 840.0
28.1767 618.0
28.2435 583.0
28.3104 495.0
28.3772 487.0
28.4441 554.0
28.5109 628.0
28.5778 586.0
28.6446 645.0
28.7115 759.0
28.7783 641.0
28.8451 644.0
28.912 652.0
28.9788 672.0
29.0457 1105.0
29.1125 2526.0
29.1794 3067.0
29.2462 2001.0
29.3131 1106.0
29.3799 852.0
29.4468 781.0
29.5136 617.0
29.5804 564.0
29.6473 558.0
29.7141 738.0
29.781 1611.0
29.8478 3281.0
29.9147 3786.0
29.9815 2674.0
30.0484 1463.0
30.1152 1191.0
30.182 1435.0
30.2489 1111.0
30.3157 876.0
30.3826 798.0
30.4494 801.0
30.5163 688.0
30.5831 602.0
30.65 611.0
30.7168 815.0
30.7837 1361.0
30.8505 1956.0
30.9173 2064.0
30.9842 2089.0
31.051 1726.0
31.1179 1032.0
31.1847 688.0
31.2516 650.0
31.3184 621.0
31.3853 558.0
31.4521 524.0
31.519 540.0
31.5858 645.0
31.6526 549.0
31.7195 413.0
31.7863 391.0
31.8532 434.0
31.92 401.0
31.9869 384.0
32.0537 680.0
32.1206 1778.0
32.1874 1459.0
32.2542 954.0
32.3211 692.0
32.3879 540.0
32.4548 519.0
32.5216 509.0
32.5885 467.0
32.6553 476.0
32.7222 392.0
32.789 391.0
32.8559 434.0
32.9227 755.0
32.9895 924.0
33.0564 926.0
33.1232 580.0
33.1901 458.0
33.2569 383.0
33.3238 328.0
33.3906 318.0
33.4575 367.0
33.5243 509.0
33.5911 642.0
33.658 838.0
33.7248 895.0
33.7917 744.0
33.8585 612.0
33.9254 441.0
33.9922 573.0
34.0591 644.0
34.1259 525.0
34.1928 570.0
34.2596 472.0
34.3264 372.0
34.3933 338.0
34.4601 264.0
34.527 244.0
34.5938 263.0
34.6607 283.0
34.7275 277.0
34.7944 303.0
34.8612 332.0
34.928 324.0
34.9949 326.0
35.0617 280.0
35.1286 282.0
35.1954 306.0
35.2623 387.0
35.3291 539.0
35.396 447.0
35.4628 428.0
35.5297 441.0
35.5965 511.0
35.6633 561.0
35.7302 485.0
35.797 400.0
35.8639 381.0
35.9307 445.0
35.9976 589.0
36.0644 677.0
36.1313 541.0
36.1981 487.0
36.265 435.0
36.3318 386.0
36.3986 375.0
36.4655 419.0
36.5323 441.0
36.5992 543.0
36.666 786.0
36.7329 1011.0
36.7997 854.0
36.8666 547.0
36.9334 418.0
37.0002 351.0
37.0671 389.0
37.1339 323.0
37.2008 315.0
37.2676 285.0
37.3345 308.0
37.4013 321.0
37.4682 318.0
37.535 486.0
37.6019 407.0
37.6687 377.0
37.7355 285.0
37.8024 256.0
37.8692 259.0
37.9361 221.0
38.0029 248.0
38.0698 263.0
38.1366 326.0
38.2035 322.0
38.2703 314.0
38.3371 279.0
38.404 230.0
38.4708 258.0
38.5377 271.0
38.6045 292.0
38.6714 264.0
38.7382 270.0
38.8051 274.0
38.8719 283.0
38.9388 342.0
39.0056 347.0
39.0724 295.0
39.1393 293.0
39.2061 294.0
39.273 279.0
39.3398 306.0
39.4067 282.0
39.4735 302.0
39.5404 330.0
39.6072 308.0
39.6741 309.0
39.7409 298.0
39.8077 293.0
39.8746 287.0
39.9414 400.0
40.0083 532.0
40.0751 630.0
40.142 633.0
40.2088 500.0
40.2757 391.0
40.3425 306.0
40.4093 284.0
40.4762 268.0
40.543 252.0
40.6099 242.0
40.6767 289.0
40.7436 300.0
40.8104 240.0
40.8773 302.0
40.9441 270.0
41.011 268.0
41.0778 232.0
41.1446 221.0
41.2115 235.0
41.2783 259.0
41.3452 232.0
41.412 194.0
41.4789 207.0
41.5457 191.0
41.6126 262.0
41.6794 241.0
41.7462 248.0
41.8131 285.0
41.8799 393.0
41.9468 412.0
42.0136 365.0
42.0805 291.0
42.1473 277.0
42.2142 290.0
42.281 338.0
42.3479 305.0
42.4147 309.0
42.4815 262.0
42.5484 268.0
42.6152 311.0
42.6821 308.0
42.7489 279.0
42.8158 236.0
42.8826 239.0
42.9495 230.0
43.0163 192.0
43.0831 196.0
43.15 231.0
43.2168 240.0
43.2837 209.0
43.3505 228.0
43.4174 210.0
43.4842 242.0
43.5511 259.0
43.6179 272.0
43.6848 332.0
43.7516 351.0
43.8184 348.0
43.8853 335.0
43.9521 332.0
44.019 258.0
44.0858 238.0
44.1527 232.0
44.2195 301.0
44.2864 295.0
44.3532 314.0
44.4201 290.0
44.4869 263.0
44.5537 295.0
44.6206 255.0
44.6874 240.0
44.7543 241.0
44.8211 286.0
44.888 331.0
44.9548 283.0
45.0217 311.0
45.0885 267.0
45.1553 289.0
45.2222 245.0
45.289 248.0
45.3559 217.0
45.4227 244.0
45.4896 270.0
45.5564 268.0
45.6233 301.0
45.6901 287.0
45.757 310.0
45.8238 346.0
45.8906 372.0
45.9575 335.0
46.0243 356.0
46.0912 372.0
46.158 372.0
46.2249 314.0
46.2917 264.0
46.3586 305.0
46.4254 279.0
46.4922 303.0
46.5591 275.0
46.6259 262.0
46.6928 269.0
46.7596 256.0
46.8265 295.0
46.8933 230.0
46.9602 213.0
47.027 213.0
47.0939 166.0
47.1607 179.0
47.2275 206.0
47.2944 205.0
47.3612 199.0
47.4281 228.0
47.4949 219.0
47.5618 258.0
47.6286 275.0
47.6955 280.0
47.7623 300.0
47.8291 418.0
47.896 489.0
47.9628 504.0
48.0297 414.0
48.0965 339.0
48.1634 239.0
48.2302 245.0
48.2971 261.0
48.3639 260.0
48.4308 233.0
48.4976 222.0
48.5644 223.0
48.6313 267.0
48.6981 284.0
48.765 310.0
48.8318 363.0
48.8987 308.0
48.9655 294.0
49.0324 336.0
49.0992 339.0
49.1661 318.0
49.2329 303.0
49.2997 307.0
49.3666 318.0
49.4334 295.0
49.5003 258.0
49.5671 278.0
49.634 215.0
49.7008 261.0
49.7677 197.0
49.8345 210.0
49.9013 198.0
49.9682 199.0
50.035 195.0
50.1019 273.0
50.1687 243.0
50.2356 235.0
50.3024 226.0
50.3693 222.0
50.4361 176.0
50.503 213.0
50.5698 250.0
50.6366 240.0
50.7035 227.0
50.7703 250.0
50.8372 256.0
50.904 264.0
50.9709 315.0
51.0377 316.0
51.1046 308.0
51.1714 287.0
51.2382 239.0
51.3051 258.0
51.3719 253.0
51.4388 227.0
51.5056 223.0
51.5725 201.0
51.6393 206.0
51.7062 211.0
51.773 236.0
51.8399 211.0
51.9067 272.0
51.9735 253.0
52.0404 289.0
52.1072 324.0
52.1741 299.0
52.2409 292.0
52.3078 279.0
52.3746 246.0
52.4415 242.0
52.5083 256.0
52.5751 244.0
52.642 240.0
52.7088 226.0
52.7757 258.0
52.8425 274.0
52.9094 253.0
52.9762 252.0
53.0431 259.0
53.1099 277.0
53.1768 243.0
53.2436 201.0
53.3104 220.0
53.3773 221.0
53.4441 217.0
53.511 230.0
53.5778 257.0
53.6447 263.0
53.7115 247.0
53.7784 269.0
53.8452 260.0
53.9121 267.0
53.9789 317.0
54.0457 342.0
54.1126 301.0
54.1794 322.0
54.2463 266.0
54.3131 248.0
54.38 220.0
54.4468 191.0
54.5137 210.0
54.5805 198.0
54.6473 232.0
54.7142 274.0
54.781 298.0
54.8479 342.0
54.9147 362.0
54.9816 361.0
55.0484 389.0
55.1153 355.0
55.1821 331.0
55.249 271.0
55.3158 232.0
55.3826 289.0
55.4495 260.0
55.5163 293.0
55.5832 291.0
55.65 338.0
55.7169 321.0
55.7837 330.0
55.8506 306.0
55.9174 285.0
55.9842 244.0
56.0511 227.0
56.1179 264.0
56.1848 277.0
56.2516 275.0
56.3185 313.0
56.3853 353.0
56.4522 366.0
56.519 383.0
56.5859 325.0
56.6527 316.0
56.7195 273.0
56.7864 245.0
56.8532 206.0
56.9201 182.0
56.9869 236.0
57.0538 272.0
57.1206 264.0
57.1875 254.0
57.2543 243.0
57.3212 258.0
57.388 192.0
57.4548 225.0
57.5217 236.0
57.5885 227.0
57.6554 224.0
57.7222 267.0
57.7891 225.0
57.8559 287.0
57.9228 315.0
57.9896 311.0
58.0564 297.0
58.1233 313.0
58.1901 297.0
58.257 283.0
58.3238 246.0
58.3907 225.0
58.4575 260.0
58.5244 270.0
58.5912 270.0
58.6581 254.0
58.7249 253.0
58.7917 232.0
58.8586 219.0
58.9254 189.0
58.9923 184.0
59.0591 210.0
59.126 231.0
59.1928 204.0
59.2597 225.0
59.3265 229.0
59.3933 230.0
59.4602 220.0
59.527 239.0
59.5939 259.0
59.6607 244.0
59.7276 223.0
59.7944 258.0
59.8613 220.0
59.9281 212.0
59.995 251.0
60.0618 213.0
60.1286 231.0
60.1955 273.0
60.2623 221.0
60.3292 260.0
60.396 216.0
60.4629 242.0
60.5297 260.0
60.5966 271.0
60.6634 272.0
60.7302 259.0
60.7971 222.0
60.8639 215.0
60.9308 222.0
60.9976 222.0
61.0645 228.0
61.1313 203.0
61.1982 253.0
61.265 250.0
61.3319 237.0
61.3987 214.0
61.4655 197.0
61.5324 204.0
61.5992 178.0
61.6661 192.0
61.7329 175.0
61.7998 170.0
61.8666 205.0
61.9335 210.0
62.0003 241.0
62.0672 215.0
62.134 188.0
62.2008 208.0
62.2677 194.0
62.3345 186.0
62.4014 179.0
62.4682 198.0
62.5351 205.0
62.6019 191.0
62.6688 182.0
62.7356 245.0
62.8024 228.0
62.8693 244.0
62.9361 236.0
63.003 212.0
63.0698 208.0
63.1367 205.0
63.2035 185.0
63.2704 180.0
63.3372 220.0
63.4041 182.0
63.4709 186.0
63.5377 196.0
63.6046 177.0
63.6714 204.0
63.7383 198.0
63.8051 233.0
63.872 241.0
63.9388 238.0
64.0057 260.0
64.0725 198.0
64.1393 193.0
64.2062 210.0
64.273 180.0
64.3399 186.0
64.4067 193.0
64.4736 189.0
64.5404 216.0
64.6073 217.0
64.6741 237.0
64.741 223.0
64.8078 225.0
64.8746 236.0
64.9415 229.0
65.0083 190.0
65.0752 231.0
65.142 223.0
65.2089 191.0
65.2757 201.0
65.3426 216.0
65.4094 204.0
65.4762 274.0
65.5431 283.0
65.6099 224.0
65.6768 259.0
65.7436 194.0
65.8105 251.0
65.8773 208.0
65.9442 198.0
66.011 246.0
66.0779 222.0
66.1447 227.0
66.2115 222.0
66.2784 229.0
66.3452 228.0
66.4121 228.0
66.4789 228.0
66.5458 185.0
66.6126 192.0
66.6795 210.0
66.7463 220.0
66.8132 206.0
66.88 219.0
66.9468 220.0
67.0137 207.0
67.0805 204.0
67.1474 216.0
67.2142 235.0
67.2811 235.0
67.3479 245.0
67.4148 253.0
67.4816 251.0
67.5484 291.0
67.6153 286.0
67.6821 238.0
67.749 244.0
67.8158 217.0
67.8827 247.0
67.9495 246.0
68.0164 204.0
68.0832 206.0
68.1501 192.0
68.2169 211.0
68.2837 235.0
68.3506 200.0
68.4174 181.0
68.4843 209.0
68.5511 226.0
68.618 195.0
68.6848 219.0
68.7517 232.0
68.8185 206.0
68.8853 198.0
68.9522 211.0
69.019 239.0
69.0859 217.0
69.1527 223.0
69.2196 198.0
69.2864 213.0
69.3533 189.0
69.4201 182.0
69.487 167.0
69.5538 185.0
69.6206 192.0
69.6875 189.0
69.7543 166.0
69.8212 169.0
69.888 222.0
69.9549 189.0
70.0217 176.0
70.0886 189.0
70.1554 174.0
70.2222 189.0
70.2891 216.0
70.3559 211.0
70.4228 197.0
70.4896 226.0
70.5565 239.0
70.6233 228.0
70.6902 203.0
70.757 212.0
70.8239 227.0
70.8907 223.0
70.9575 220.0
71.0244 210.0
71.0912 229.0
71.1581 217.0
71.2249 217.0
71.2918 212.0
71.3586 186.0
71.4255 215.0
71.4923 212.0
71.5592 237.0
71.626 222.0
71.6928 220.0
71.7597 189.0
71.8265 190.0
71.8934 222.0
71.9602 185.0
72.0271 193.0
72.0939 180.0
72.1608 153.0
72.2276 170.0
72.2944 199.0
72.3613 203.0
72.4281 195.0
72.495 168.0
72.5618 181.0
72.6287 181.0
72.6955 168.0
72.7624 183.0
72.8292 150.0
72.8961 173.0
72.9629 161.0
73.0297 173.0
73.0966 165.0
73.1634 181.0
73.2303 160.0
73.2971 166.0
73.364 205.0
73.4308 169.0
73.4977 164.0
73.5645 167.0
73.6313 167.0
73.6982 152.0
73.765 169.0
73.8319 180.0
73.8987 170.0
73.9656 199.0
74.0324 160.0
74.0993 180.0
74.1661 177.0
74.233 155.0
74.2998 179.0
74.3666 159.0
74.4335 195.0
74.5003 155.0
74.5672 189.0
74.634 189.0
74.7009 179.0
74.7677 178.0
74.8346 198.0
74.9014 209.0
74.9683 205.0
75.0351 212.0
75.1019 188.0
75.1688 214.0
75.2356 201.0
75.3025 195.0
75.3693 169.0
75.4362 177.0
75.503 169.0
75.5699 175.0
75.6367 191.0
75.7035 208.0
75.7704 212.0
75.8372 203.0
75.9041 179.0
75.9709 186.0
76.0378 191.0
76.1046 180.0
76.1715 166.0
76.2383 188.0
76.3052 164.0
76.372 166.0
76.4388 175.0
76.5057 148.0
76.5725 183.0
76.6394 147.0
76.7062 166.0
76.7731 178.0
76.8399 157.0
76.9068 168.0
76.9736 183.0
77.0404 169.0
77.1073 152.0
77.1741 173.0
77.241 147.0
77.3078 145.0
77.3747 149.0
77.4415 147.0
77.5084 155.0
77.5752 162.0
77.6421 177.0
77.7089 190.0
77.7757 174.0
77.8426 174.0
77.9094 157.0
77.9763 159.0
78.0431 197.0
78.11 167.0
78.1768 154.0
78.2437 203.0
78.3105 170.0
78.3773 163.0
78.4442 159.0
78.511 175.0
78.5779 144.0
78.6447 161.0
78.7116 152.0
78.7784 159.0
78.8453 146.0
78.9121 117.0
78.979 165.0
79.0458 162.0
79.1126 163.0
79.1795 137.0
79.2463 162.0
79.3132 153.0
79.38 142.0
79.4469 149.0
79.5137 132.0
79.5806 136.0
79.6474 157.0
79.7143 131.0
79.7811 128.0
79.8479 116.0
79.9148 134.0
79.9816 122.0
80.0485 121.0
80.1153 129.0
80.1822 144.0
80.249 134.0
80.3159 127.0
80.3827 137.0
80.4495 136.0
80.5164 163.0
80.5832 143.0
80.6501 139.0
80.7169 160.0
80.7838 138.0
80.8506 125.0
80.9175 147.0
80.9843 138.0
81.0512 147.0
81.118 119.0
81.1848 148.0
81.2517 144.0
81.3185 135.0
81.3854 143.0
81.4522 120.0
81.5191 128.0
81.5859 139.0
81.6528 123.0
81.7196 125.0
81.7864 144.0
81.8533 145.0
81.9201 147.0
81.987 147.0
82.0538 126.0
82.1207 129.0
82.1875 137.0
82.2544 129.0
82.3212 126.0
82.3881 120.0
82.4549 126.0
82.5217 135.0
82.5886 123.0
82.6554 127.0
82.7223 114.0
82.7891 122.0
82.856 133.0
82.9228 114.0
82.9897 110.0
83.0565 120.0
83.1233 127.0
83.1902 117.0
83.257 129.0
83.3239 142.0
83.3907 121.0
83.4576 108.0
83.5244 161.0
83.5913 130.0
83.6581 128.0
83.725 147.0
83.7918 127.0
83.8586 134.0
83.9255 119.0
83.9923 110.0
84.0592 125.0
84.126 107.0
84.1929 133.0
84.2597 106.0
84.3266 113.0
84.3934 132.0
84.4603 106.0
84.5271 129.0
84.5939 132.0
84.6608 134.0
84.7276 110.0
84.7945 115.0
84.8613 135.0
84.9282 139.0
84.995 123.0
85.0619 106.0
85.1287 141.0
85.1955 129.0
85.2624 125.0
85.3292 115.0
85.3961 131.0
85.4629 132.0
85.5298 127.0
85.5966 115.0
85.6635 134.0
85.7303 128.0
85.7972 126.0
85.864 137.0
85.9308 126.0
85.9977 138.0
86.0645 139.0
86.1314 150.0
86.1982 147.0
86.2651 142.0
86.3319 110.0
86.3988 143.0
86.4656 114.0
86.5324 102.0
86.5993 126.0
86.6661 130.0
86.733 106.0
86.7998 131.0
86.8667 114.0
86.9335 131.0
87.0004 126.0
87.0672 102.0
87.1341 116.0
87.2009 107.0
87.2677 99.0
87.3346 107.0
87.4014 97.0
87.4683 126.0
87.5351 122.0
87.602 101.0
87.6688 108.0
87.7357 115.0
87.8025 102.0
87.8693 118.0
87.9362 113.0
88.003 121.0
88.0699 98.0
88.1367 104.0
88.2036 116.0
88.2704 91.0
88.3373 91.0
88.4041 100.0
88.471 89.0
88.5378 107.0
88.6046 94.0
88.6715 103.0
88.7383 95.0
88.8052 108.0
88.872 95.0
88.9389 119.0
89.0057 121.0
89.0726 117.0
89.1394 111.0
89.2063 121.0
89.2731 95.0
89.3399 105.0
89.4068 116.0
89.4736 97.0
89.5405 120.0
89.6073 103.0
89.6742 96.0
89.741 105.0
89.8079 92.0
89.8747 77.0
89.9415 113.0