File: code/XRD_Analysis/Zeolites/data_files/SAPO-14/calc/20241105_SAPO-14-4_calc_Probe-4.xy
4.98146 947.0
5.0483 956.0
5.11515 927.0
5.18199 942.0
5.24884 948.0
5.31568 915.0
5.38253 865.0
5.44937 885.0
5.51622 835.0
5.58306 820.0
5.64991 847.0
5.71675 823.0
5.7836 816.0
5.85044 828.0
5.91729 808.0
5.98413 792.0
6.05098 778.0
6.11782 795.0
6.18467 722.0
6.25151 713.0
6.31836 750.0
6.3852 708.0
6.45205 710.0
6.51889 709.0
6.58574 680.0
6.65258 692.0
6.71943 701.0
6.78627 696.0
6.85312 664.0
6.91996 604.0
6.98681 618.0
7.05365 669.0
7.1205 682.0
7.18734 620.0
7.25419 654.0
7.32103 629.0
7.38788 589.0
7.45472 644.0
7.52157 665.0
7.58841 638.0
7.65526 633.0
7.7221 621.0
7.78895 623.0
7.85579 612.0
7.92264 680.0
7.98948 777.0
8.05633 887.0
8.12317 1114.0
8.19002 1028.0
8.25686 833.0
8.32371 738.0
8.39055 668.0
8.4574 600.0
8.52424 597.0
8.59109 527.0
8.65793 543.0
8.72478 548.0
8.79162 535.0
8.85847 541.0
8.92532 526.0
8.99216 547.0
9.05901 523.0
9.12585 529.0
9.1927 584.0
9.25954 573.0
9.32639 601.0
9.39323 710.0
9.46008 1144.0
9.52692 2283.0
9.59377 3083.0
9.66061 2160.0
9.72746 1351.0
9.7943 1007.0
9.86115 699.0
9.92799 581.0
9.99484 465.0
10.0617 544.0
10.1285 466.0
10.1954 479.0
10.2622 462.0
10.3291 462.0
10.3959 431.0
10.4628 486.0
10.5296 475.0
10.5964 419.0
10.6633 474.0
10.7301 444.0
10.797 450.0
10.8638 430.0
10.9307 450.0
10.9975 415.0
11.0644 429.0
11.1312 427.0
11.198 377.0
11.2649 415.0
11.3317 440.0
11.3986 438.0
11.4654 441.0
11.5323 445.0
11.5991 394.0
11.666 431.0
11.7328 425.0
11.7997 417.0
11.8665 388.0
11.9333 443.0
12.0002 373.0
12.067 409.0
12.1339 376.0
12.2007 431.0
12.2676 414.0
12.3344 366.0
12.4013 409.0
12.4681 406.0
12.5349 434.0
12.6018 402.0
12.6686 383.0
12.7355 430.0
12.8023 451.0
12.8692 570.0
12.936 1095.0
13.0029 1547.0
13.0697 1588.0
13.1366 1057.0
13.2034 817.0
13.2702 629.0
13.3371 506.0
13.4039 444.0
13.4708 386.0
13.5376 395.0
13.6045 403.0
13.6713 388.0
13.7382 352.0
13.805 351.0
13.8719 392.0
13.9387 393.0
14.0055 439.0
14.0724 490.0
14.1392 447.0
14.2061 371.0
14.2729 365.0
14.3398 345.0
14.4066 391.0
14.4735 341.0
14.5403 371.0
14.6071 350.0
14.674 365.0
14.7408 350.0
14.8077 354.0
14.8745 386.0
14.9414 353.0
15.0082 394.0
15.0751 344.0
15.1419 355.0
15.2088 383.0
15.2756 365.0
15.3424 369.0
15.4093 353.0
15.4761 398.0
15.543 407.0
15.6098 479.0
15.6767 572.0
15.7435 906.0
15.8104 1373.0
15.8772 1725.0
15.944 1333.0
16.0109 953.0
16.0777 856.0
16.1446 1150.0
16.2114 1085.0
16.2783 693.0
16.3451 554.0
16.412 459.0
16.4788 396.0
16.5457 373.0
16.6125 398.0
16.6793 399.0
16.7462 392.0
16.813 376.0
16.8799 334.0
16.9467 350.0
17.0136 413.0
17.0804 339.0
17.1473 377.0
17.2141 323.0
17.2809 373.0
17.3478 416.0
17.4146 354.0
17.4815 344.0
17.5483 388.0
17.6152 348.0
17.682 460.0
17.7489 635.0
17.8157 908.0
17.8826 1138.0
17.9494 770.0
18.0162 597.0
18.0831 501.0
18.1499 403.0
18.2168 391.0
18.2836 420.0
18.3505 372.0
18.4173 413.0
18.4842 362.0
18.551 382.0
18.6179 371.0
18.6847 379.0
18.7515 378.0
18.8184 406.0
18.8852 398.0
18.9521 407.0
19.0189 419.0
19.0858 459.0
19.1526 540.0
19.2195 652.0
19.2863 526.0
19.3531 503.0
19.42 512.0
19.4868 465.0
19.5537 420.0
19.6205 453.0
19.6874 519.0
19.7542 503.0
19.8211 525.0
19.8879 485.0
19.9548 534.0
20.0216 586.0
20.0884 697.0
20.1553 852.0
20.2221 1263.0
20.289 1613.0
20.3558 1766.0
20.4227 1465.0
20.4895 1079.0
20.5564 889.0
20.6232 856.0
20.69 1381.0
20.7569 2750.0
20.8237 3071.0
20.8906 1984.0
20.9574 1448.0
21.0243 1391.0
21.0911 1576.0
21.158 2081.0
21.2248 2694.0
21.2917 2917.0
21.3585 2698.0
21.4253 2367.0
21.4922 1923.0
21.559 1544.0
21.6259 1107.0
21.6927 969.0
21.7596 857.0
21.8264 813.0
21.8933 813.0
21.9601 911.0
22.0269 970.0
22.0938 1271.0
22.1606 1719.0
22.2275 2181.0
22.2943 2708.0
22.3612 2594.0
22.428 2497.0
22.4949 2144.0
22.5617 1791.0
22.6286 1542.0
22.6954 1418.0
22.7622 1271.0
22.8291 1400.0
22.8959 1683.0
22.9628 2035.0
23.0296 2316.0
23.0965 2186.0
23.1633 1975.0
23.2302 2233.0
23.297 2525.0
23.3639 2838.0
23.4307 2673.0
23.4975 2046.0
23.5644 1398.0
23.6312 1087.0
23.6981 832.0
23.7649 740.0
23.8318 722.0
23.8986 659.0
23.9655 663.0
24.0323 665.0
24.0991 679.0
24.166 626.0
24.2328 653.0
24.2997 658.0
24.3665 713.0
24.4334 745.0
24.5002 789.0
24.5671 714.0
24.6339 762.0
24.7008 666.0
24.7676 696.0
24.8344 660.0
24.9013 818.0
24.9681 1181.0
25.035 1759.0
25.1018 1841.0
25.1687 1414.0
25.2355 1082.0
25.3024 897.0
25.3692 716.0
25.436 665.0
25.5029 588.0
25.5697 620.0
25.6366 633.0
25.7034 596.0
25.7703 582.0
25.8371 618.0
25.904 657.0
25.9708 713.0
26.0377 817.0
26.1045 1270.0
26.1713 1743.0
26.2382 1585.0
26.305 1522.0
26.3719 1709.0
26.4387 1674.0
26.5056 1415.0
26.5724 1286.0
26.6393 1232.0
26.7061 1067.0
26.773 961.0
26.8398 825.0
26.9066 759.0
26.9735 711.0
27.0403 711.0
27.1072 622.0
27.174 666.0
27.2409 646.0
27.3077 594.0
27.3746 627.0
27.4414 654.0
27.5082 554.0
27.5751 591.0
27.6419 622.0
27.7088 677.0
27.7756 666.0
27.8425 686.0
27.9093 886.0
27.9762 822.0
28.043 802.0
28.1099 757.0
28.1767 824.0
28.2435 891.0
28.3104 984.0
28.3772 1034.0
28.4441 883.0
28.5109 754.0
28.5778 712.0
28.6446 707.0
28.7115 675.0
28.7783 758.0
28.8451 766.0
28.912 897.0
28.9788 1002.0
29.0457 1158.0
29.1125 1299.0
29.1794 1112.0
29.2462 930.0
29.3131 754.0
29.3799 782.0
29.4468 755.0
29.5136 808.0
29.5804 775.0
29.6473 899.0
29.7141 877.0
29.781 958.0
29.8478 865.0
29.9147 725.0
29.9815 668.0
30.0484 649.0
30.1152 620.0
30.182 609.0
30.2489 583.0
30.3157 633.0
30.3826 610.0
30.4494 598.0
30.5163 589.0
30.5831 602.0
30.65 703.0
30.7168 738.0
30.7837 1036.0
30.8505 1990.0
30.9173 2943.0
30.9842 2651.0
31.051 1843.0
31.1179 1177.0
31.1847 1187.0
31.2516 1371.0
31.3184 1536.0
31.3853 1251.0
31.4521 920.0
31.519 781.0
31.5858 763.0
31.6526 740.0
31.7195 766.0
31.7863 944.0
31.8532 1012.0
31.92 949.0
31.9869 808.0
32.0537 729.0
32.1206 673.0
32.1874 604.0
32.2542 551.0
32.3211 521.0
32.3879 570.0
32.4548 559.0
32.5216 584.0
32.5885 661.0
32.6553 699.0
32.7222 824.0
32.789 837.0
32.8559 1039.0
32.9227 1056.0
32.9895 996.0
33.0564 817.0
33.1232 789.0
33.1901 618.0
33.2569 574.0
33.3238 539.0
33.3906 526.0
33.4575 541.0
33.5243 479.0
33.5911 558.0
33.658 597.0
33.7248 616.0
33.7917 550.0
33.8585 492.0
33.9254 462.0
33.9922 500.0
34.0591 490.0
34.1259 536.0
34.1928 498.0
34.2596 513.0
34.3264 524.0
34.3933 471.0
34.4601 496.0
34.527 507.0
34.5938 541.0
34.6607 622.0
34.7275 694.0
34.7944 876.0
34.8612 908.0
34.928 807.0
34.9949 677.0
35.0617 502.0
35.1286 501.0
35.1954 466.0
35.2623 511.0
35.3291 543.0
35.396 516.0
35.4628 450.0
35.5297 524.0
35.5965 518.0
35.6633 502.0
35.7302 454.0
35.797 457.0
35.8639 436.0
35.9307 431.0
35.9976 470.0
36.0644 467.0
36.1313 574.0
36.1981 613.0
36.265 759.0
36.3318 807.0
36.3986 735.0
36.4655 628.0
36.5323 555.0
36.5992 488.0
36.666 479.0
36.7329 492.0
36.7997 413.0
36.8666 419.0
36.9334 423.0
37.0002 480.0
37.0671 431.0
37.1339 455.0
37.2008 433.0
37.2676 446.0
37.3345 431.0
37.4013 399.0
37.4682 414.0
37.535 453.0
37.6019 443.0
37.6687 435.0
37.7355 553.0
37.8024 584.0
37.8692 646.0
37.9361 736.0
38.0029 729.0
38.0698 717.0
38.1366 675.0
38.2035 645.0
38.2703 659.0
38.3371 683.0
38.404 627.0
38.4708 626.0
38.5377 544.0
38.6045 532.0
38.6714 449.0
38.7382 419.0
38.8051 419.0
38.8719 426.0
38.9388 417.0
39.0056 462.0
39.0724 367.0
39.1393 404.0
39.2061 400.0
39.273 415.0
39.3398 418.0
39.4067 451.0
39.4735 439.0
39.5404 460.0
39.6072 471.0
39.6741 447.0
39.7409 466.0
39.8077 406.0
39.8746 471.0
39.9414 413.0
40.0083 433.0
40.0751 441.0
40.142 486.0
40.2088 444.0
40.2757 398.0
40.3425 379.0
40.4093 387.0
40.4762 380.0
40.543 364.0
40.6099 349.0
40.6767 370.0
40.7436 342.0
40.8104 331.0
40.8773 396.0
40.9441 361.0
41.011 393.0
41.0778 408.0
41.1446 356.0
41.2115 368.0
41.2783 370.0
41.3452 402.0
41.412 380.0
41.4789 372.0
41.5457 363.0
41.6126 344.0
41.6794 377.0
41.7462 368.0
41.8131 407.0
41.8799 380.0
41.9468 408.0
42.0136 376.0
42.0805 388.0
42.1473 376.0
42.2142 389.0
42.281 419.0
42.3479 449.0
42.4147 387.0
42.4815 363.0
42.5484 371.0
42.6152 388.0
42.6821 397.0
42.7489 412.0
42.8158 360.0
42.8826 385.0
42.9495 425.0
43.0163 450.0
43.0831 453.0
43.15 456.0
43.2168 482.0
43.2837 507.0
43.3505 482.0
43.4174 491.0
43.4842 459.0
43.5511 385.0
43.6179 417.0
43.6848 397.0
43.7516 418.0
43.8184 446.0
43.8853 438.0
43.9521 412.0
44.019 391.0
44.0858 409.0
44.1527 354.0
44.2195 354.0
44.2864 371.0
44.3532 409.0
44.4201 340.0
44.4869 392.0
44.5537 400.0
44.6206 399.0
44.6874 415.0
44.7543 428.0
44.8211 481.0
44.888 466.0
44.9548 448.0
45.0217 471.0
45.0885 450.0
45.1553 464.0
45.2222 435.0
45.289 416.0
45.3559 444.0
45.4227 446.0
45.4896 429.0
45.5564 412.0
45.6233 379.0
45.6901 368.0
45.757 367.0
45.8238 422.0
45.8906 342.0
45.9575 380.0
46.0243 362.0
46.0912 365.0
46.158 338.0
46.2249 377.0
46.2917 334.0
46.3586 368.0
46.4254 378.0
46.4922 361.0
46.5591 356.0
46.6259 357.0
46.6928 368.0
46.7596 340.0
46.8265 358.0
46.8933 362.0
46.9602 350.0
47.027 365.0
47.0939 330.0
47.1607 373.0
47.2275 351.0
47.2944 392.0
47.3612 397.0
47.4281 350.0
47.4949 362.0
47.5618 373.0
47.6286 377.0
47.6955 382.0
47.7623 362.0
47.8291 375.0
47.896 365.0
47.9628 349.0
48.0297 375.0
48.0965 401.0
48.1634 453.0
48.2302 462.0
48.2971 493.0
48.3639 475.0
48.4308 430.0
48.4976 443.0
48.5644 450.0
48.6313 417.0
48.6981 439.0
48.765 435.0
48.8318 382.0
48.8987 368.0
48.9655 354.0
49.0324 378.0
49.0992 403.0
49.1661 445.0
49.2329 476.0
49.2997 559.0
49.3666 516.0
49.4334 494.0
49.5003 451.0
49.5671 449.0
49.634 439.0
49.7008 445.0
49.7677 415.0
49.8345 420.0
49.9013 386.0
49.9682 384.0
50.035 435.0
50.1019 378.0
50.1687 338.0
50.2356 377.0
50.3024 375.0
50.3693 384.0
50.4361 383.0
50.503 411.0
50.5698 356.0
50.6366 347.0
50.7035 387.0
50.7703 401.0
50.8372 362.0
50.904 403.0
50.9709 464.0
51.0377 465.0
51.1046 516.0
51.1714 556.0
51.2382 502.0
51.3051 487.0
51.3719 475.0
51.4388 461.0
51.5056 460.0
51.5725 471.0
51.6393 392.0
51.7062 387.0
51.773 389.0
51.8399 373.0
51.9067 408.0
51.9735 382.0
52.0404 382.0
52.1072 357.0
52.1741 380.0
52.2409 379.0
52.3078 395.0
52.3746 368.0
52.4415 373.0
52.5083 428.0
52.5751 369.0
52.642 393.0
52.7088 396.0
52.7757 364.0
52.8425 375.0
52.9094 375.0
52.9762 371.0
53.0431 339.0
53.1099 357.0
53.1768 397.0
53.2436 404.0
53.3104 384.0
53.3773 422.0
53.4441 376.0
53.511 364.0
53.5778 369.0
53.6447 394.0
53.7115 382.0
53.7784 397.0
53.8452 432.0
53.9121 445.0
53.9789 433.0
54.0457 423.0
54.1126 380.0
54.1794 378.0
54.2463 340.0
54.3131 387.0
54.38 394.0
54.4468 368.0
54.5137 391.0
54.5805 412.0
54.6473 406.0
54.7142 431.0
54.781 490.0
54.8479 472.0
54.9147 443.0
54.9816 424.0
55.0484 454.0
55.1153 433.0
55.1821 376.0
55.249 416.0
55.3158 383.0
55.3826 438.0
55.4495 459.0
55.5163 419.0
55.5832 417.0
55.65 422.0
55.7169 369.0
55.7837 386.0
55.8506 369.0
55.9174 377.0
55.9842 353.0
56.0511 360.0
56.1179 357.0
56.1848 375.0
56.2516 368.0
56.3185 382.0
56.3853 388.0
56.4522 424.0
56.519 433.0
56.5859 434.0
56.6527 472.0
56.7195 429.0
56.7864 442.0
56.8532 436.0
56.9201 410.0
56.9869 427.0
57.0538 416.0
57.1206 388.0
57.1875 378.0
57.2543 376.0
57.3212 402.0
57.388 365.0
57.4548 407.0
57.5217 381.0
57.5885 365.0
57.6554 362.0
57.7222 397.0
57.7891 371.0
57.8559 398.0
57.9228 401.0
57.9896 425.0
58.0564 450.0
58.1233 453.0
58.1901 445.0
58.257 455.0
58.3238 460.0
58.3907 476.0
58.4575 406.0
58.5244 414.0
58.5912 443.0
58.6581 400.0
58.7249 439.0
58.7917 420.0
58.8586 477.0
58.9254 458.0
58.9923 513.0
59.0591 509.0
59.126 474.0
59.1928 502.0
59.2597 507.0
59.3265 441.0
59.3933 410.0
59.4602 423.0
59.527 409.0
59.5939 414.0
59.6607 347.0
59.7276 386.0
59.7944 360.0
59.8613 392.0
59.9281 409.0
59.995 407.0
60.0618 392.0
60.1286 385.0
60.1955 402.0
60.2623 422.0
60.3292 400.0
60.396 453.0
60.4629 381.0
60.5297 371.0
60.5966 366.0
60.6634 388.0
60.7302 380.0
60.7971 369.0
60.8639 369.0
60.9308 361.0
60.9976 351.0
61.0645 345.0
61.1313 320.0
61.1982 356.0
61.265 345.0
61.3319 349.0
61.3987 350.0
61.4655 341.0
61.5324 348.0
61.5992 379.0
61.6661 357.0
61.7329 364.0
61.7998 395.0
61.8666 433.0
61.9335 393.0
62.0003 402.0
62.0672 380.0
62.134 381.0
62.2008 358.0
62.2677 383.0
62.3345 353.0
62.4014 369.0
62.4682 360.0
62.5351 362.0
62.6019 367.0
62.6688 431.0
62.7356 376.0
62.8024 378.0
62.8693 364.0
62.9361 383.0
63.003 370.0
63.0698 383.0
63.1367 366.0
63.2035 353.0
63.2704 356.0
63.3372 338.0
63.4041 336.0
63.4709 362.0
63.5377 385.0
63.6046 393.0
63.6714 404.0
63.7383 391.0
63.8051 416.0
63.872 411.0
63.9388 367.0
64.0057 362.0
64.0725 388.0
64.1393 372.0
64.2062 383.0
64.273 392.0
64.3399 340.0
64.4067 368.0
64.4736 356.0
64.5404 348.0
64.6073 326.0
64.6741 313.0
64.741 328.0
64.8078 314.0
64.8746 385.0
64.9415 335.0
65.0083 351.0
65.0752 329.0
65.142 311.0
65.2089 362.0
65.2757 345.0
65.3426 331.0
65.4094 344.0
65.4762 395.0
65.5431 354.0
65.6099 371.0
65.6768 360.0
65.7436 338.0
65.8105 372.0
65.8773 337.0
65.9442 367.0
66.011 317.0
66.0779 365.0
66.1447 376.0
66.2115 350.0
66.2784 380.0
66.3452 379.0
66.4121 378.0
66.4789 418.0
66.5458 395.0
66.6126 401.0
66.6795 436.0
66.7463 387.0
66.8132 457.0
66.88 408.0
66.9468 395.0
67.0137 386.0
67.0805 373.0
67.1474 372.0
67.2142 397.0
67.2811 377.0
67.3479 398.0
67.4148 347.0
67.4816 346.0
67.5484 350.0
67.6153 324.0
67.6821 363.0
67.749 332.0
67.8158 329.0
67.8827 336.0
67.9495 355.0
68.0164 306.0
68.0832 333.0
68.1501 339.0
68.2169 362.0
68.2837 356.0
68.3506 329.0
68.4174 360.0
68.4843 342.0
68.5511 332.0
68.618 299.0
68.6848 313.0
68.7517 291.0
68.8185 335.0
68.8853 315.0
68.9522 319.0
69.019 311.0
69.0859 307.0
69.1527 338.0
69.2196 324.0
69.2864 344.0
69.3533 298.0
69.4201 339.0
69.487 373.0
69.5538 351.0
69.6206 377.0
69.6875 363.0
69.7543 381.0
69.8212 375.0
69.888 381.0
69.9549 351.0
70.0217 344.0
70.0886 383.0
70.1554 328.0
70.2222 338.0
70.2891 342.0
70.3559 354.0
70.4228 320.0
70.4896 356.0
70.5565 347.0
70.6233 332.0
70.6902 333.0
70.757 357.0
70.8239 348.0
70.8907 321.0
70.9575 336.0
71.0244 322.0
71.0912 309.0
71.1581 339.0
71.2249 304.0
71.2918 335.0
71.3586 335.0
71.4255 350.0
71.4923 363.0
71.5592 302.0
71.626 339.0
71.6928 336.0
71.7597 339.0
71.8265 357.0
71.8934 344.0
71.9602 334.0
72.0271 370.0
72.0939 323.0
72.1608 396.0
72.2276 377.0
72.2944 351.0
72.3613 328.0
72.4281 360.0
72.495 403.0
72.5618 376.0
72.6287 345.0
72.6955 335.0
72.7624 358.0
72.8292 336.0
72.8961 344.0
72.9629 362.0
73.0297 332.0
73.0966 323.0
73.1634 400.0
73.2303 314.0
73.2971 344.0
73.364 342.0
73.4308 345.0
73.4977 324.0
73.5645 337.0
73.6313 322.0
73.6982 350.0
73.765 349.0
73.8319 286.0
73.8987 318.0
73.9656 298.0
74.0324 322.0
74.0993 328.0
74.1661 316.0
74.233 319.0
74.2998 345.0
74.3666 308.0
74.4335 302.0
74.5003 320.0
74.5672 320.0
74.634 333.0
74.7009 289.0
74.7677 355.0
74.8346 356.0
74.9014 332.0
74.9683 325.0
75.0351 332.0
75.1019 332.0
75.1688 355.0
75.2356 331.0
75.3025 336.0
75.3693 328.0
75.4362 326.0
75.503 318.0
75.5699 350.0
75.6367 309.0
75.7035 329.0
75.7704 318.0
75.8372 331.0
75.9041 339.0
75.9709 330.0
76.0378 325.0
76.1046 336.0
76.1715 311.0
76.2383 368.0
76.3052 318.0
76.372 367.0
76.4388 325.0
76.5057 333.0
76.5725 349.0
76.6394 338.0
76.7062 345.0
76.7731 315.0
76.8399 337.0
76.9068 310.0
76.9736 330.0
77.0404 319.0
77.1073 326.0
77.1741 348.0
77.241 311.0
77.3078 305.0
77.3747 334.0
77.4415 333.0
77.5084 338.0
77.5752 338.0
77.6421 362.0
77.7089 308.0
77.7757 328.0
77.8426 332.0
77.9094 349.0
77.9763 292.0
78.0431 307.0
78.11 339.0
78.1768 307.0
78.2437 302.0
78.3105 315.0
78.3773 288.0
78.4442 285.0
78.511 300.0
78.5779 304.0
78.6447 295.0
78.7116 300.0
78.7784 314.0
78.8453 328.0
78.9121 280.0
78.979 322.0
79.0458 320.0
79.1126 322.0
79.1795 311.0
79.2463 295.0
79.3132 301.0
79.38 302.0
79.4469 298.0
79.5137 289.0
79.5806 311.0
79.6474 270.0
79.7143 314.0
79.7811 290.0
79.8479 261.0
79.9148 324.0
79.9816 332.0
80.0485 282.0
80.1153 324.0
80.1822 323.0
80.249 268.0
80.3159 307.0
80.3827 310.0
80.4495 322.0
80.5164 336.0
80.5832 276.0
80.6501 280.0
80.7169 308.0
80.7838 284.0
80.8506 328.0
80.9175 276.0
80.9843 313.0
81.0512 310.0
81.118 320.0
81.1848 270.0
81.2517 306.0
81.3185 272.0
81.3854 254.0
81.4522 251.0
81.5191 261.0
81.5859 268.0
81.6528 262.0
81.7196 283.0
81.7864 266.0
81.8533 241.0
81.9201 248.0
81.987 251.0
82.0538 273.0
82.1207 259.0
82.1875 255.0
82.2544 255.0
82.3212 245.0
82.3881 271.0
82.4549 283.0
82.5217 266.0
82.5886 286.0
82.6554 262.0
82.7223 238.0
82.7891 245.0
82.856 248.0
82.9228 236.0
82.9897 254.0
83.0565 250.0
83.1233 227.0
83.1902 241.0
83.257 246.0
83.3239 247.0
83.3907 252.0
83.4576 242.0
83.5244 207.0
83.5913 225.0
83.6581 219.0
83.725 244.0
83.7918 238.0
83.8586 240.0
83.9255 220.0
83.9923 225.0
84.0592 208.0
84.126 210.0
84.1929 210.0
84.2597 217.0
84.3266 228.0
84.3934 242.0
84.4603 238.0
84.5271 227.0
84.5939 231.0
84.6608 200.0
84.7276 208.0
84.7945 215.0
84.8613 231.0
84.9282 213.0
84.995 217.0
85.0619 209.0
85.1287 196.0
85.1955 239.0
85.2624 183.0
85.3292 215.0
85.3961 219.0
85.4629 227.0
85.5298 224.0
85.5966 201.0
85.6635 191.0
85.7303 194.0
85.7972 195.0
85.864 181.0
85.9308 200.0
85.9977 184.0
86.0645 213.0
86.1314 179.0
86.1982 181.0
86.2651 194.0
86.3319 195.0
86.3988 190.0
86.4656 184.0
86.5324 194.0
86.5993 208.0
86.6661 197.0
86.733 198.0
86.7998 190.0
86.8667 186.0
86.9335 219.0
87.0004 208.0
87.0672 188.0
87.1341 180.0
87.2009 191.0
87.2677 204.0
87.3346 188.0
87.4014 174.0
87.4683 193.0
87.5351 212.0
87.602 175.0
87.6688 205.0
87.7357 184.0
87.8025 200.0
87.8693 197.0
87.9362 168.0
88.003 194.0
88.0699 176.0
88.1367 182.0
88.2036 141.0
88.2704 183.0
88.3373 173.0
88.4041 192.0
88.471 208.0
88.5378 199.0
88.6046 173.0
88.6715 192.0
88.7383 188.0
88.8052 170.0
88.872 182.0
88.9389 208.0
89.0057 201.0
89.0726 196.0
89.1394 178.0
89.2063 177.0
89.2731 176.0
89.3399 186.0
89.4068 199.0
89.4736 186.0
89.5405 190.0
89.6073 194.0
89.6742 186.0
89.741 190.0
89.8079 188.0
89.8747 195.0
89.9415 181.0