File: code/XRD_Analysis/Zeolites/data_files/SAPO-14/calc/20241023_SAPO-14-3_calc_Probe-1.xy
4.98146 928.0
5.0483 967.0
5.11515 853.0
5.18199 887.0
5.24884 885.0
5.31568 848.0
5.38253 877.0
5.44937 916.0
5.51622 857.0
5.58306 851.0
5.64991 835.0
5.71675 801.0
5.7836 774.0
5.85044 856.0
5.91729 807.0
5.98413 801.0
6.05098 745.0
6.11782 725.0
6.18467 767.0
6.25151 734.0
6.31836 721.0
6.3852 746.0
6.45205 716.0
6.51889 645.0
6.58574 700.0
6.65258 698.0
6.71943 742.0
6.78627 705.0
6.85312 736.0
6.91996 691.0
6.98681 677.0
7.05365 711.0
7.1205 678.0
7.18734 681.0
7.25419 694.0
7.32103 651.0
7.38788 602.0
7.45472 651.0
7.52157 592.0
7.58841 617.0
7.65526 617.0
7.7221 644.0
7.78895 625.0
7.85579 633.0
7.92264 634.0
7.98948 635.0
8.05633 660.0
8.12317 621.0
8.19002 660.0
8.25686 714.0
8.32371 694.0
8.39055 606.0
8.4574 651.0
8.52424 722.0
8.59109 739.0
8.65793 856.0
8.72478 1145.0
8.79162 1999.0
8.85847 4275.0
8.92532 5960.0
8.99216 3861.0
9.05901 1875.0
9.12585 1105.0
9.1927 783.0
9.25954 602.0
9.32639 659.0
9.39323 707.0
9.46008 728.0
9.52692 600.0
9.59377 566.0
9.66061 479.0
9.72746 543.0
9.7943 545.0
9.86115 519.0
9.92799 514.0
9.99484 485.0
10.0617 516.0
10.1285 470.0
10.1954 478.0
10.2622 476.0
10.3291 475.0
10.3959 476.0
10.4628 531.0
10.5296 478.0
10.5964 445.0
10.6633 549.0
10.7301 516.0
10.797 626.0
10.8638 734.0
10.9307 849.0
10.9975 777.0
11.0644 879.0
11.1312 1440.0
11.198 1746.0
11.2649 1094.0
11.3317 604.0
11.3986 521.0
11.4654 525.0
11.5323 492.0
11.5991 489.0
11.666 536.0
11.7328 555.0
11.7997 711.0
11.8665 963.0
11.9333 1486.0
12.0002 2334.0
12.067 1489.0
12.1339 704.0
12.2007 524.0
12.2676 446.0
12.3344 410.0
12.4013 411.0
12.4681 435.0
12.5349 446.0
12.6018 424.0
12.6686 465.0
12.7355 453.0
12.8023 458.0
12.8692 483.0
12.936 568.0
13.0029 842.0
13.0697 1605.0
13.1366 4207.0
13.2034 5053.0
13.2702 2320.0
13.3371 1000.0
13.4039 756.0
13.4708 720.0
13.5376 1005.0
13.6045 1769.0
13.6713 3956.0
13.7382 4393.0
13.805 2203.0
13.8719 984.0
13.9387 1039.0
14.0055 908.0
14.0724 839.0
14.1392 922.0
14.2061 860.0
14.2729 626.0
14.3398 469.0
14.4066 509.0
14.4735 539.0
14.5403 572.0
14.6071 471.0
14.674 429.0
14.7408 391.0
14.8077 367.0
14.8745 382.0
14.9414 354.0
15.0082 344.0
15.0751 346.0
15.1419 383.0
15.2088 350.0
15.2756 413.0
15.3424 386.0
15.4093 511.0
15.4761 893.0
15.543 1848.0
15.6098 1720.0
15.6767 850.0
15.7435 551.0
15.8104 495.0
15.8772 422.0
15.944 415.0
16.0109 399.0
16.0777 400.0
16.1446 404.0
16.2114 541.0
16.2783 680.0
16.3451 877.0
16.412 609.0
16.4788 497.0
16.5457 514.0
16.6125 509.0
16.6793 540.0
16.7462 556.0
16.813 420.0
16.8799 357.0
16.9467 330.0
17.0136 366.0
17.0804 316.0
17.1473 384.0
17.2141 332.0
17.2809 381.0
17.3478 403.0
17.4146 386.0
17.4815 411.0
17.5483 438.0
17.6152 428.0
17.682 433.0
17.7489 565.0
17.8157 859.0
17.8826 1970.0
17.9494 3812.0
18.0162 3194.0
18.0831 1828.0
18.1499 1517.0
18.2168 1172.0
18.2836 920.0
18.3505 1308.0
18.4173 1455.0
18.4842 876.0
18.551 489.0
18.6179 451.0
18.6847 388.0
18.7515 399.0
18.8184 458.0
18.8852 601.0
18.9521 985.0
19.0189 1268.0
19.0858 878.0
19.1526 653.0
19.2195 501.0
19.2863 477.0
19.3531 469.0
19.42 505.0
19.4868 783.0
19.5537 1038.0
19.6205 976.0
19.6874 969.0
19.7542 1270.0
19.8211 1114.0
19.8879 724.0
19.9548 516.0
20.0216 523.0
20.0884 522.0
20.1553 626.0
20.2221 714.0
20.289 837.0
20.3558 900.0
20.4227 1109.0
20.4895 1995.0
20.5564 2077.0
20.6232 1341.0
20.69 806.0
20.7569 665.0
20.8237 693.0
20.8906 842.0
20.9574 1348.0
21.0243 1871.0
21.0911 1671.0
21.158 1357.0
21.2248 1259.0
21.2917 1284.0
21.3585 1740.0
21.4253 2203.0
21.4922 1911.0
21.559 1575.0
21.6259 1328.0
21.6927 1372.0
21.7596 1950.0
21.8264 2166.0
21.8933 1694.0
21.9601 1899.0
22.0269 1834.0
22.0938 1205.0
22.1606 911.0
22.2275 786.0
22.2943 746.0
22.3612 747.0
22.428 740.0
22.4949 893.0
22.5617 976.0
22.6286 1192.0
22.6954 1854.0
22.7622 2376.0
22.8291 1601.0
22.8959 1022.0
22.9628 821.0
23.0296 758.0
23.0965 774.0
23.1633 738.0
23.2302 850.0
23.297 1345.0
23.3639 1538.0
23.4307 1033.0
23.4975 652.0
23.5644 630.0
23.6312 584.0
23.6981 572.0
23.7649 543.0
23.8318 498.0
23.8986 581.0
23.9655 592.0
24.0323 523.0
24.0991 610.0
24.166 805.0
24.2328 864.0
24.2997 729.0
24.3665 544.0
24.4334 419.0
24.5002 418.0
24.5671 385.0
24.6339 485.0
24.7008 755.0
24.7676 1316.0
24.8344 1333.0
24.9013 992.0
24.9681 750.0
25.035 594.0
25.1018 568.0
25.1687 531.0
25.2355 476.0
25.3024 500.0
25.3692 554.0
25.436 696.0
25.5029 729.0
25.5697 617.0
25.6366 629.0
25.7034 714.0
25.7703 704.0
25.8371 669.0
25.904 693.0
25.9708 755.0
26.0377 559.0
26.1045 481.0
26.1713 543.0
26.2382 745.0
26.305 1428.0
26.3719 1941.0
26.4387 1835.0
26.5056 1777.0
26.5724 1921.0
26.6393 1528.0
26.7061 1160.0
26.773 951.0
26.8398 911.0
26.9066 1012.0
26.9735 1175.0
27.0403 1566.0
27.1072 2303.0
27.174 2640.0
27.2409 2395.0
27.3077 3015.0
27.3746 3767.0
27.4414 2791.0
27.5082 1942.0
27.5751 1743.0
27.6419 1621.0
27.7088 1156.0
27.7756 878.0
27.8425 664.0
27.9093 653.0
27.9762 626.0
28.043 914.0
28.1099 771.0
28.1767 630.0
28.2435 525.0
28.3104 469.0
28.3772 536.0
28.4441 550.0
28.5109 660.0
28.5778 696.0
28.6446 766.0
28.7115 868.0
28.7783 839.0
28.8451 721.0
28.912 725.0
28.9788 798.0
29.0457 1587.0
29.1125 3290.0
29.1794 3617.0
29.2462 2437.0
29.3131 1474.0
29.3799 1213.0
29.4468 1098.0
29.5136 1466.0
29.5804 2087.0
29.6473 2364.0
29.7141 1789.0
29.781 1401.0
29.8478 1112.0
29.9147 1161.0
29.9815 1451.0
30.0484 1993.0
30.1152 1961.0
30.182 1571.0
30.2489 1254.0
30.3157 1025.0
30.3826 806.0
30.4494 656.0
30.5163 607.0
30.5831 605.0
30.65 632.0
30.7168 762.0
30.7837 969.0
30.8505 1448.0
30.9173 2168.0
30.9842 2013.0
31.051 1506.0
31.1179 982.0
31.1847 653.0
31.2516 591.0
31.3184 559.0
31.3853 662.0
31.4521 669.0
31.519 684.0
31.5858 549.0
31.6526 473.0
31.7195 477.0
31.7863 524.0
31.8532 647.0
31.92 1091.0
31.9869 1362.0
32.0537 1074.0
32.1206 820.0
32.1874 693.0
32.2542 686.0
32.3211 611.0
32.3879 590.0
32.4548 587.0
32.5216 536.0
32.5885 508.0
32.6553 513.0
32.7222 561.0
32.789 725.0
32.8559 756.0
32.9227 957.0
32.9895 882.0
33.0564 754.0
33.1232 672.0
33.1901 678.0
33.2569 724.0
33.3238 873.0
33.3906 735.0
33.4575 613.0
33.5243 517.0
33.5911 477.0
33.658 364.0
33.7248 361.0
33.7917 329.0
33.8585 333.0
33.9254 396.0
33.9922 461.0
34.0591 601.0
34.1259 560.0
34.1928 534.0
34.2596 454.0
34.3264 406.0
34.3933 364.0
34.4601 294.0
34.527 306.0
34.5938 342.0
34.6607 310.0
34.7275 295.0
34.7944 303.0
34.8612 253.0
34.928 283.0
34.9949 316.0
35.0617 353.0
35.1286 439.0
35.1954 502.0
35.2623 490.0
35.3291 506.0
35.396 489.0
35.4628 489.0
35.5297 516.0
35.5965 599.0
35.6633 581.0
35.7302 537.0
35.797 475.0
35.8639 470.0
35.9307 424.0
35.9976 458.0
36.0644 537.0
36.1313 538.0
36.1981 581.0
36.265 575.0
36.3318 542.0
36.3986 558.0
36.4655 588.0
36.5323 551.0
36.5992 643.0
36.666 701.0
36.7329 637.0
36.7997 541.0
36.8666 492.0
36.9334 369.0
37.0002 403.0
37.0671 450.0
37.1339 409.0
37.2008 403.0
37.2676 428.0
37.3345 473.0
37.4013 403.0
37.4682 322.0
37.535 301.0
37.6019 314.0
37.6687 282.0
37.7355 229.0
37.8024 278.0
37.8692 239.0
37.9361 269.0
38.0029 269.0
38.0698 320.0
38.1366 313.0
38.2035 357.0
38.2703 389.0
38.3371 388.0
38.404 337.0
38.4708 315.0
38.5377 300.0
38.6045 340.0
38.6714 279.0
38.7382 298.0
38.8051 271.0
38.8719 272.0
38.9388 303.0
39.0056 285.0
39.0724 328.0
39.1393 321.0
39.2061 344.0
39.273 268.0
39.3398 261.0
39.4067 254.0
39.4735 258.0
39.5404 252.0
39.6072 238.0
39.6741 371.0
39.7409 440.0
39.8077 498.0
39.8746 432.0
39.9414 346.0
40.0083 349.0
40.0751 382.0
40.142 444.0
40.2088 369.0
40.2757 338.0
40.3425 322.0
40.4093 298.0
40.4762 344.0
40.543 339.0
40.6099 354.0
40.6767 316.0
40.7436 295.0
40.8104 280.0
40.8773 317.0
40.9441 257.0
41.011 246.0
41.0778 270.0
41.1446 238.0
41.2115 261.0
41.2783 227.0
41.3452 219.0
41.412 225.0
41.4789 214.0
41.5457 255.0
41.6126 256.0
41.6794 295.0
41.7462 297.0
41.8131 382.0
41.8799 406.0
41.9468 408.0
42.0136 392.0
42.0805 358.0
42.1473 319.0
42.2142 378.0
42.281 406.0
42.3479 403.0
42.4147 423.0
42.4815 361.0
42.5484 301.0
42.6152 304.0
42.6821 292.0
42.7489 276.0
42.8158 277.0
42.8826 235.0
42.9495 274.0
43.0163 228.0
43.0831 238.0
43.15 253.0
43.2168 263.0
43.2837 302.0
43.3505 238.0
43.4174 230.0
43.4842 243.0
43.5511 313.0
43.6179 307.0
43.6848 335.0
43.7516 346.0
43.8184 268.0
43.8853 288.0
43.9521 263.0
44.019 261.0
44.0858 275.0
44.1527 294.0
44.2195 306.0
44.2864 369.0
44.3532 298.0
44.4201 337.0
44.4869 341.0
44.5537 361.0
44.6206 384.0
44.6874 326.0
44.7543 269.0
44.8211 287.0
44.888 232.0
44.9548 254.0
45.0217 248.0
45.0885 212.0
45.1553 231.0
45.2222 242.0
45.289 280.0
45.3559 284.0
45.4227 304.0
45.4896 336.0
45.5564 386.0
45.6233 416.0
45.6901 317.0
45.757 295.0
45.8238 276.0
45.8906 310.0
45.9575 330.0
46.0243 357.0
46.0912 357.0
46.158 380.0
46.2249 358.0
46.2917 314.0
46.3586 292.0
46.4254 300.0
46.4922 269.0
46.5591 250.0
46.6259 262.0
46.6928 289.0
46.7596 319.0
46.8265 287.0
46.8933 294.0
46.9602 256.0
47.027 247.0
47.0939 223.0
47.1607 241.0
47.2275 246.0
47.2944 301.0
47.3612 304.0
47.4281 341.0
47.4949 336.0
47.5618 309.0
47.6286 329.0
47.6955 341.0
47.7623 334.0
47.8291 330.0
47.896 309.0
47.9628 284.0
48.0297 267.0
48.0965 252.0
48.1634 239.0
48.2302 235.0
48.2971 253.0
48.3639 222.0
48.4308 251.0
48.4976 233.0
48.5644 237.0
48.6313 285.0
48.6981 366.0
48.765 387.0
48.8318 422.0
48.8987 364.0
48.9655 370.0
49.0324 370.0
49.0992 351.0
49.1661 300.0
49.2329 303.0
49.2997 318.0
49.3666 286.0
49.4334 308.0
49.5003 306.0
49.5671 313.0
49.634 328.0
49.7008 309.0
49.7677 278.0
49.8345 294.0
49.9013 240.0
49.9682 259.0
50.035 260.0
50.1019 214.0
50.1687 250.0
50.2356 207.0
50.3024 252.0
50.3693 233.0
50.4361 212.0
50.503 236.0
50.5698 205.0
50.6366 244.0
50.7035 259.0
50.7703 323.0
50.8372 337.0
50.904 372.0
50.9709 342.0
51.0377 285.0
51.1046 304.0
51.1714 313.0
51.2382 236.0
51.3051 245.0
51.3719 300.0
51.4388 297.0
51.5056 305.0
51.5725 349.0
51.6393 334.0
51.7062 326.0
51.773 307.0
51.8399 277.0
51.9067 256.0
51.9735 247.0
52.0404 238.0
52.1072 229.0
52.1741 224.0
52.2409 261.0
52.3078 260.0
52.3746 289.0
52.4415 272.0
52.5083 266.0
52.5751 272.0
52.642 313.0
52.7088 292.0
52.7757 255.0
52.8425 270.0
52.9094 271.0
52.9762 261.0
53.0431 246.0
53.1099 253.0
53.1768 227.0
53.2436 220.0
53.3104 219.0
53.3773 227.0
53.4441 238.0
53.511 255.0
53.5778 235.0
53.6447 287.0
53.7115 341.0
53.7784 314.0
53.8452 308.0
53.9121 274.0
53.9789 257.0
54.0457 242.0
54.1126 243.0
54.1794 232.0
54.2463 267.0
54.3131 292.0
54.38 257.0
54.4468 275.0
54.5137 239.0
54.5805 230.0
54.6473 267.0
54.7142 245.0
54.781 332.0
54.8479 344.0
54.9147 309.0
54.9816 336.0
55.0484 363.0
55.1153 335.0
55.1821 320.0
55.249 357.0
55.3158 331.0
55.3826 324.0
55.4495 347.0
55.5163 298.0
55.5832 326.0
55.65 367.0
55.7169 330.0
55.7837 310.0
55.8506 297.0
55.9174 376.0
55.9842 357.0
56.0511 370.0
56.1179 314.0
56.1848 302.0
56.2516 275.0
56.3185 242.0
56.3853 250.0
56.4522 227.0
56.519 242.0
56.5859 203.0
56.6527 248.0
56.7195 315.0
56.7864 317.0
56.8532 306.0
56.9201 288.0
56.9869 268.0
57.0538 271.0
57.1206 287.0
57.1875 263.0
57.2543 297.0
57.3212 264.0
57.388 264.0
57.4548 272.0
57.5217 293.0
57.5885 294.0
57.6554 299.0
57.7222 311.0
57.7891 307.0
57.8559 268.0
57.9228 264.0
57.9896 256.0
58.0564 282.0
58.1233 246.0
58.1901 237.0
58.257 217.0
58.3238 263.0
58.3907 240.0
58.4575 235.0
58.5244 190.0
58.5912 227.0
58.6581 253.0
58.7249 256.0
58.7917 224.0
58.8586 207.0
58.9254 206.0
58.9923 222.0
59.0591 233.0
59.126 229.0
59.1928 224.0
59.2597 286.0
59.3265 238.0
59.3933 257.0
59.4602 269.0
59.527 260.0
59.5939 238.0
59.6607 230.0
59.7276 250.0
59.7944 268.0
59.8613 270.0
59.9281 252.0
59.995 241.0
60.0618 254.0
60.1286 279.0
60.1955 277.0
60.2623 289.0
60.3292 280.0
60.396 290.0
60.4629 291.0
60.5297 293.0
60.5966 305.0
60.6634 248.0
60.7302 293.0
60.7971 291.0
60.8639 261.0
60.9308 264.0
60.9976 225.0
61.0645 254.0
61.1313 231.0
61.1982 228.0
61.265 192.0
61.3319 193.0
61.3987 220.0
61.4655 183.0
61.5324 200.0
61.5992 197.0
61.6661 201.0
61.7329 229.0
61.7998 209.0
61.8666 204.0
61.9335 196.0
62.0003 200.0
62.0672 225.0
62.134 201.0
62.2008 223.0
62.2677 231.0
62.3345 279.0
62.4014 263.0
62.4682 219.0
62.5351 224.0
62.6019 226.0
62.6688 212.0
62.7356 211.0
62.8024 227.0
62.8693 220.0
62.9361 211.0
63.003 221.0
63.0698 210.0
63.1367 195.0
63.2035 183.0
63.2704 199.0
63.3372 230.0
63.4041 200.0
63.4709 256.0
63.5377 242.0
63.6046 258.0
63.6714 259.0
63.7383 260.0
63.8051 219.0
63.872 261.0
63.9388 228.0
64.0057 193.0
64.0725 222.0
64.1393 194.0
64.2062 208.0
64.273 188.0
64.3399 180.0
64.4067 201.0
64.4736 222.0
64.5404 212.0
64.6073 229.0
64.6741 238.0
64.741 190.0
64.8078 220.0
64.8746 236.0
64.9415 212.0
65.0083 213.0
65.0752 259.0
65.142 254.0
65.2089 257.0
65.2757 251.0
65.3426 225.0
65.4094 226.0
65.4762 206.0
65.5431 238.0
65.6099 282.0
65.6768 274.0
65.7436 287.0
65.8105 277.0
65.8773 258.0
65.9442 235.0
66.011 238.0
66.0779 235.0
66.1447 230.0
66.2115 194.0
66.2784 214.0
66.3452 216.0
66.4121 201.0
66.4789 217.0
66.5458 228.0
66.6126 235.0
66.6795 213.0
66.7463 210.0
66.8132 183.0
66.88 201.0
66.9468 200.0
67.0137 275.0
67.0805 244.0
67.1474 266.0
67.2142 278.0
67.2811 289.0
67.3479 261.0
67.4148 282.0
67.4816 259.0
67.5484 253.0
67.6153 199.0
67.6821 247.0
67.749 227.0
67.8158 220.0
67.8827 223.0
67.9495 212.0
68.0164 201.0
68.0832 174.0
68.1501 226.0
68.2169 205.0
68.2837 200.0
68.3506 203.0
68.4174 227.0
68.4843 217.0
68.5511 231.0
68.618 244.0
68.6848 235.0
68.7517 209.0
68.8185 192.0
68.8853 227.0
68.9522 208.0
69.019 215.0
69.0859 195.0
69.1527 192.0
69.2196 195.0
69.2864 191.0
69.3533 210.0
69.4201 195.0
69.487 191.0
69.5538 193.0
69.6206 210.0
69.6875 172.0
69.7543 239.0
69.8212 209.0
69.888 208.0
69.9549 221.0
70.0217 232.0
70.0886 227.0
70.1554 229.0
70.2222 235.0
70.2891 255.0
70.3559 242.0
70.4228 227.0
70.4896 259.0
70.5565 239.0
70.6233 251.0
70.6902 244.0
70.757 220.0
70.8239 193.0
70.8907 242.0
70.9575 213.0
71.0244 197.0
71.0912 194.0
71.1581 223.0
71.2249 209.0
71.2918 193.0
71.3586 178.0
71.4255 210.0
71.4923 188.0
71.5592 237.0
71.626 174.0
71.6928 194.0
71.7597 191.0
71.8265 208.0
71.8934 197.0
71.9602 200.0
72.0271 190.0
72.0939 185.0
72.1608 194.0
72.2276 194.0
72.2944 196.0
72.3613 175.0
72.4281 177.0
72.495 188.0
72.5618 199.0
72.6287 181.0
72.6955 162.0
72.7624 185.0
72.8292 185.0
72.8961 167.0
72.9629 181.0
73.0297 167.0
73.0966 180.0
73.1634 193.0
73.2303 164.0
73.2971 179.0
73.364 169.0
73.4308 215.0
73.4977 176.0
73.5645 208.0
73.6313 179.0
73.6982 178.0
73.765 182.0
73.8319 184.0
73.8987 184.0
73.9656 172.0
74.0324 155.0
74.0993 167.0
74.1661 180.0
74.233 179.0
74.2998 192.0
74.3666 176.0
74.4335 191.0
74.5003 189.0
74.5672 183.0
74.634 192.0
74.7009 192.0
74.7677 199.0
74.8346 180.0
74.9014 212.0
74.9683 181.0
75.0351 196.0
75.1019 169.0
75.1688 185.0
75.2356 216.0
75.3025 141.0
75.3693 197.0
75.4362 183.0
75.503 180.0
75.5699 172.0
75.6367 179.0
75.7035 197.0
75.7704 188.0
75.8372 194.0
75.9041 185.0
75.9709 169.0
76.0378 206.0
76.1046 184.0
76.1715 177.0
76.2383 178.0
76.3052 159.0
76.372 155.0
76.4388 161.0
76.5057 173.0
76.5725 143.0
76.6394 154.0
76.7062 186.0
76.7731 167.0
76.8399 178.0
76.9068 191.0
76.9736 179.0
77.0404 195.0
77.1073 183.0
77.1741 177.0
77.241 194.0
77.3078 221.0
77.3747 209.0
77.4415 186.0
77.5084 199.0
77.5752 186.0
77.6421 154.0
77.7089 178.0
77.7757 159.0
77.8426 172.0
77.9094 185.0
77.9763 167.0
78.0431 149.0
78.11 181.0
78.1768 193.0
78.2437 196.0
78.3105 194.0
78.3773 164.0
78.4442 164.0
78.511 169.0
78.5779 148.0
78.6447 150.0
78.7116 162.0
78.7784 144.0
78.8453 155.0
78.9121 159.0
78.979 151.0
79.0458 162.0
79.1126 123.0
79.1795 161.0
79.2463 139.0
79.3132 157.0
79.38 179.0
79.4469 160.0
79.5137 128.0
79.5806 153.0
79.6474 175.0
79.7143 160.0
79.7811 147.0
79.8479 160.0
79.9148 170.0
79.9816 158.0
80.0485 152.0
80.1153 151.0
80.1822 154.0
80.249 134.0
80.3159 134.0
80.3827 146.0
80.4495 144.0
80.5164 149.0
80.5832 163.0
80.6501 125.0
80.7169 149.0
80.7838 155.0
80.8506 134.0
80.9175 137.0
80.9843 137.0
81.0512 117.0
81.118 131.0
81.1848 143.0
81.2517 118.0
81.3185 121.0
81.3854 149.0
81.4522 150.0
81.5191 125.0
81.5859 167.0
81.6528 128.0
81.7196 145.0
81.7864 139.0
81.8533 141.0
81.9201 154.0
81.987 138.0
82.0538 152.0
82.1207 129.0
82.1875 137.0
82.2544 125.0
82.3212 146.0
82.3881 155.0
82.4549 133.0
82.5217 155.0
82.5886 153.0
82.6554 139.0
82.7223 138.0
82.7891 139.0
82.856 152.0
82.9228 136.0
82.9897 129.0
83.0565 135.0
83.1233 128.0
83.1902 123.0
83.257 122.0
83.3239 121.0
83.3907 117.0
83.4576 131.0
83.5244 125.0
83.5913 132.0
83.6581 127.0
83.725 143.0
83.7918 127.0
83.8586 136.0
83.9255 118.0
83.9923 145.0
84.0592 132.0
84.126 139.0
84.1929 144.0
84.2597 102.0
84.3266 128.0
84.3934 146.0
84.4603 138.0
84.5271 125.0
84.5939 114.0
84.6608 132.0
84.7276 119.0
84.7945 133.0
84.8613 137.0
84.9282 134.0
84.995 152.0
85.0619 159.0
85.1287 145.0
85.1955 150.0
85.2624 121.0
85.3292 125.0
85.3961 143.0
85.4629 142.0
85.5298 152.0
85.5966 141.0
85.6635 132.0
85.7303 142.0
85.7972 143.0
85.864 142.0
85.9308 119.0
85.9977 129.0
86.0645 125.0
86.1314 133.0
86.1982 129.0
86.2651 125.0
86.3319 131.0
86.3988 138.0
86.4656 131.0
86.5324 108.0
86.5993 138.0
86.6661 132.0
86.733 151.0
86.7998 130.0
86.8667 135.0
86.9335 123.0
87.0004 119.0
87.0672 125.0
87.1341 131.0
87.2009 137.0
87.2677 117.0
87.3346 120.0
87.4014 129.0
87.4683 112.0
87.5351 101.0
87.602 132.0
87.6688 112.0
87.7357 118.0
87.8025 105.0
87.8693 104.0
87.9362 106.0
88.003 122.0
88.0699 110.0
88.1367 115.0
88.2036 121.0
88.2704 104.0
88.3373 133.0
88.4041 125.0
88.471 116.0
88.5378 130.0
88.6046 82.0
88.6715 116.0
88.7383 119.0
88.8052 127.0
88.872 100.0
88.9389 110.0
89.0057 129.0
89.0726 122.0
89.1394 116.0
89.2063 122.0
89.2731 108.0
89.3399 123.0
89.4068 113.0
89.4736 118.0
89.5405 112.0
89.6073 118.0
89.6742 102.0
89.741 99.0
89.8079 106.0
89.8747 108.0
89.9415 113.0