File: code/XRD_Analysis/Zeolites/data_files/SAPO-14/calc/20241105_SAPO-14-4_calc_Probe-3.xy
4.98146 960.0
5.0483 953.0
5.11515 911.0
5.18199 902.0
5.24884 953.0
5.31568 857.0
5.38253 838.0
5.44937 897.0
5.51622 907.0
5.58306 881.0
5.64991 838.0
5.71675 825.0
5.7836 792.0
5.85044 840.0
5.91729 822.0
5.98413 754.0
6.05098 813.0
6.11782 760.0
6.18467 778.0
6.25151 740.0
6.31836 771.0
6.3852 745.0
6.45205 766.0
6.51889 755.0
6.58574 747.0
6.65258 728.0
6.71943 672.0
6.78627 706.0
6.85312 736.0
6.91996 727.0
6.98681 669.0
7.05365 709.0
7.1205 700.0
7.18734 735.0
7.25419 667.0
7.32103 669.0
7.38788 707.0
7.45472 691.0
7.52157 692.0
7.58841 668.0
7.65526 675.0
7.7221 663.0
7.78895 641.0
7.85579 663.0
7.92264 641.0
7.98948 641.0
8.05633 633.0
8.12317 620.0
8.19002 600.0
8.25686 625.0
8.32371 630.0
8.39055 656.0
8.4574 662.0
8.52424 625.0
8.59109 652.0
8.65793 644.0
8.72478 720.0
8.79162 755.0
8.85847 947.0
8.92532 1864.0
8.99216 5191.0
9.05901 3772.0
9.12585 1312.0
9.1927 864.0
9.25954 779.0
9.32639 922.0
9.39323 1279.0
9.46008 2940.0
9.52692 8456.0
9.59377 6980.0
9.66061 1288.0
9.72746 823.0
9.7943 659.0
9.86115 601.0
9.92799 569.0
9.99484 574.0
10.0617 534.0
10.1285 552.0
10.1954 596.0
10.2622 519.0
10.3291 520.0
10.3959 557.0
10.4628 478.0
10.5296 533.0
10.5964 510.0
10.6633 549.0
10.7301 564.0
10.797 521.0
10.8638 544.0
10.9307 597.0
10.9975 683.0
11.0644 666.0
11.1312 592.0
11.198 893.0
11.2649 1102.0
11.3317 625.0
11.3986 534.0
11.4654 525.0
11.5323 496.0
11.5991 495.0
11.666 489.0
11.7328 542.0
11.7997 505.0
11.8665 644.0
11.9333 1048.0
12.0002 2007.0
12.067 1130.0
12.1339 557.0
12.2007 509.0
12.2676 478.0
12.3344 471.0
12.4013 482.0
12.4681 524.0
12.5349 486.0
12.6018 501.0
12.6686 563.0
12.7355 575.0
12.8023 606.0
12.8692 998.0
12.936 2881.0
13.0029 4342.0
13.0697 1802.0
13.1366 1916.0
13.2034 3621.0
13.2702 1675.0
13.3371 602.0
13.4039 615.0
13.4708 523.0
13.5376 631.0
13.6045 848.0
13.6713 1894.0
13.7382 3420.0
13.805 1663.0
13.8719 587.0
13.9387 579.0
14.0055 816.0
14.0724 1063.0
14.1392 956.0
14.2061 732.0
14.2729 782.0
14.3398 597.0
14.4066 477.0
14.4735 482.0
14.5403 490.0
14.6071 516.0
14.674 450.0
14.7408 489.0
14.8077 504.0
14.8745 453.0
14.9414 430.0
15.0082 422.0
15.0751 458.0
15.1419 471.0
15.2088 477.0
15.2756 471.0
15.3424 448.0
15.4093 470.0
15.4761 533.0
15.543 557.0
15.6098 907.0
15.6767 1438.0
15.7435 823.0
15.8104 521.0
15.8772 461.0
15.944 532.0
16.0109 656.0
16.0777 1220.0
16.1446 2577.0
16.2114 1768.0
16.2783 730.0
16.3451 838.0
16.412 701.0
16.4788 526.0
16.5457 538.0
16.6125 514.0
16.6793 615.0
16.7462 583.0
16.813 532.0
16.8799 482.0
16.9467 476.0
17.0136 420.0
17.0804 494.0
17.1473 466.0
17.2141 467.0
17.2809 458.0
17.3478 496.0
17.4146 560.0
17.4815 512.0
17.5483 553.0
17.6152 573.0
17.682 667.0
17.7489 1055.0
17.8157 2339.0
17.8826 2918.0
17.9494 1994.0
18.0162 1658.0
18.0831 3730.0
18.1499 3629.0
18.2168 1447.0
18.2836 1062.0
18.3505 981.0
18.4173 1134.0
18.4842 922.0
18.551 602.0
18.6179 491.0
18.6847 565.0
18.7515 519.0
18.8184 500.0
18.8852 513.0
18.9521 644.0
19.0189 1015.0
19.0858 1213.0
19.1526 1028.0
19.2195 996.0
19.2863 678.0
19.3531 526.0
19.42 555.0
19.4868 527.0
19.5537 590.0
19.6205 785.0
19.6874 1309.0
19.7542 1660.0
19.8211 1062.0
19.8879 683.0
19.9548 563.0
20.0216 551.0
20.0884 607.0
20.1553 595.0
20.2221 649.0
20.289 667.0
20.3558 735.0
20.4227 760.0
20.4895 774.0
20.5564 1177.0
20.6232 1962.0
20.69 2612.0
20.7569 5398.0
20.8237 6213.0
20.8906 2431.0
20.9574 960.0
21.0243 879.0
21.0911 1326.0
21.158 1556.0
21.2248 989.0
21.2917 748.0
21.3585 922.0
21.4253 1352.0
21.4922 1353.0
21.559 967.0
21.6259 698.0
21.6927 764.0
21.7596 954.0
21.8264 1210.0
21.8933 1282.0
21.9601 1586.0
22.0269 1643.0
22.0938 1550.0
22.1606 1992.0
22.2275 1651.0
22.2943 958.0
22.3612 721.0
22.428 735.0
22.4949 758.0
22.5617 930.0
22.6286 1328.0
22.6954 1893.0
22.7622 1502.0
22.8291 871.0
22.8959 772.0
22.9628 775.0
23.0296 736.0
23.0965 764.0
23.1633 1000.0
23.2302 1725.0
23.297 1896.0
23.3639 1455.0
23.4307 1091.0
23.4975 835.0
23.5644 835.0
23.6312 759.0
23.6981 748.0
23.7649 661.0
23.8318 668.0
23.8986 644.0
23.9655 651.0
24.0323 709.0
24.0991 831.0
24.166 1059.0
24.2328 892.0
24.2997 748.0
24.3665 641.0
24.4334 612.0
24.5002 538.0
24.5671 629.0
24.6339 639.0
24.7008 667.0
24.7676 703.0
24.8344 753.0
24.9013 1044.0
24.9681 1606.0
25.035 2864.0
25.1018 3171.0
25.1687 2397.0
25.2355 1425.0
25.3024 995.0
25.3692 885.0
25.436 894.0
25.5029 835.0
25.5697 769.0
25.6366 719.0
25.7034 712.0
25.7703 759.0
25.8371 753.0
25.904 760.0
25.9708 992.0
26.0377 1119.0
26.1045 1657.0
26.1713 2399.0
26.2382 1828.0
26.305 1109.0
26.3719 860.0
26.4387 1236.0
26.5056 1771.0
26.5724 1537.0
26.6393 1422.0
26.7061 1575.0
26.773 1430.0
26.8398 1147.0
26.9066 948.0
26.9735 910.0
27.0403 817.0
27.1072 855.0
27.174 822.0
27.2409 1132.0
27.3077 1909.0
27.3746 2630.0
27.4414 3916.0
27.5082 3600.0
27.5751 2292.0
27.6419 1587.0
27.7088 1337.0
27.7756 1238.0
27.8425 967.0
27.9093 1097.0
27.9762 986.0
28.043 919.0
28.1099 1042.0
28.1767 1020.0
28.2435 939.0
28.3104 1153.0
28.3772 1340.0
28.4441 1161.0
28.5109 866.0
28.5778 828.0
28.6446 769.0
28.7115 933.0
28.7783 959.0
28.8451 823.0
28.912 803.0
28.9788 807.0
29.0457 881.0
29.1125 1261.0
29.1794 2282.0
29.2462 2515.0
29.3131 1566.0
29.3799 988.0
29.4468 946.0
29.5136 918.0
29.5804 826.0
29.6473 704.0
29.7141 815.0
29.781 1065.0
29.8478 1816.0
29.9147 2520.0
29.9815 2412.0
30.0484 1719.0
30.1152 1224.0
30.182 1316.0
30.2489 1307.0
30.3157 1196.0
30.3826 1037.0
30.4494 996.0
30.5163 971.0
30.5831 864.0
30.65 897.0
30.7168 1047.0
30.7837 1523.0
30.8505 3010.0
30.9173 4880.0
30.9842 4704.0
31.051 3046.0
31.1179 1906.0
31.1847 1391.0
31.2516 1644.0
31.3184 2329.0
31.3853 1857.0
31.4521 1188.0
31.519 791.0
31.5858 789.0
31.6526 803.0
31.7195 808.0
31.7863 737.0
31.8532 798.0
31.92 837.0
31.9869 740.0
32.0537 678.0
32.1206 845.0
32.1874 1172.0
32.2542 1085.0
32.3211 833.0
32.3879 713.0
32.4548 688.0
32.5216 747.0
32.5885 666.0
32.6553 708.0
32.7222 605.0
32.789 585.0
32.8559 581.0
32.9227 656.0
32.9895 903.0
33.0564 1018.0
33.1232 797.0
33.1901 580.0
33.2569 528.0
33.3238 532.0
33.3906 521.0
33.4575 491.0
33.5243 566.0
33.5911 693.0
33.658 1002.0
33.7248 1037.0
33.7917 897.0
33.8585 727.0
33.9254 575.0
33.9922 582.0
34.0591 635.0
34.1259 645.0
34.1928 606.0
34.2596 627.0
34.3264 554.0
34.3933 481.0
34.4601 506.0
34.527 448.0
34.5938 503.0
34.6607 470.0
34.7275 553.0
34.7944 656.0
34.8612 873.0
34.928 792.0
34.9949 600.0
35.0617 459.0
35.1286 456.0
35.1954 444.0
35.2623 513.0
35.3291 625.0
35.396 604.0
35.4628 618.0
35.5297 556.0
35.5965 550.0
35.6633 610.0
35.7302 604.0
35.797 541.0
35.8639 501.0
35.9307 466.0
35.9976 494.0
36.0644 669.0
36.1313 755.0
36.1981 744.0
36.265 705.0
36.3318 706.0
36.3986 621.0
36.4655 544.0
36.5323 496.0
36.5992 532.0
36.666 630.0
36.7329 803.0
36.7997 824.0
36.8666 670.0
36.9334 540.0
37.0002 471.0
37.0671 464.0
37.1339 490.0
37.2008 450.0
37.2676 380.0
37.3345 391.0
37.4013 389.0
37.4682 342.0
37.535 462.0
37.6019 432.0
37.6687 448.0
37.7355 431.0
37.8024 396.0
37.8692 368.0
37.9361 364.0
38.0029 358.0
38.0698 385.0
38.1366 372.0
38.2035 411.0
38.2703 438.0
38.3371 424.0
38.404 398.0
38.4708 402.0
38.5377 397.0
38.6045 444.0
38.6714 445.0
38.7382 411.0
38.8051 379.0
38.8719 431.0
38.9388 451.0
39.0056 463.0
39.0724 416.0
39.1393 384.0
39.2061 385.0
39.273 419.0
39.3398 415.0
39.4067 426.0
39.4735 408.0
39.5404 440.0
39.6072 440.0
39.6741 427.0
39.7409 443.0
39.8077 436.0
39.8746 404.0
39.9414 446.0
40.0083 573.0
40.0751 706.0
40.142 659.0
40.2088 580.0
40.2757 503.0
40.3425 447.0
40.4093 402.0
40.4762 411.0
40.543 389.0
40.6099 378.0
40.6767 398.0
40.7436 389.0
40.8104 396.0
40.8773 411.0
40.9441 394.0
41.011 391.0
41.0778 387.0
41.1446 378.0
41.2115 418.0
41.2783 357.0
41.3452 308.0
41.412 375.0
41.4789 342.0
41.5457 362.0
41.6126 353.0
41.6794 330.0
41.7462 409.0
41.8131 360.0
41.8799 431.0
41.9468 470.0
42.0136 431.0
42.0805 433.0
42.1473 453.0
42.2142 400.0
42.281 451.0
42.3479 453.0
42.4147 453.0
42.4815 430.0
42.5484 418.0
42.6152 415.0
42.6821 412.0
42.7489 375.0
42.8158 378.0
42.8826 357.0
42.9495 354.0
43.0163 341.0
43.0831 384.0
43.15 370.0
43.2168 428.0
43.2837 414.0
43.3505 368.0
43.4174 383.0
43.4842 338.0
43.5511 356.0
43.6179 393.0
43.6848 424.0
43.7516 486.0
43.8184 528.0
43.8853 527.0
43.9521 470.0
44.019 395.0
44.0858 395.0
44.1527 362.0
44.2195 364.0
44.2864 428.0
44.3532 381.0
44.4201 361.0
44.4869 403.0
44.5537 371.0
44.6206 375.0
44.6874 410.0
44.7543 352.0
44.8211 378.0
44.888 368.0
44.9548 382.0
45.0217 402.0
45.0885 365.0
45.1553 399.0
45.2222 379.0
45.289 407.0
45.3559 366.0
45.4227 345.0
45.4896 371.0
45.5564 422.0
45.6233 389.0
45.6901 387.0
45.757 418.0
45.8238 411.0
45.8906 436.0
45.9575 395.0
46.0243 431.0
46.0912 393.0
46.158 425.0
46.2249 402.0
46.2917 417.0
46.3586 417.0
46.4254 376.0
46.4922 415.0
46.5591 364.0
46.6259 360.0
46.6928 368.0
46.7596 356.0
46.8265 337.0
46.8933 349.0
46.9602 368.0
47.027 370.0
47.0939 326.0
47.1607 328.0
47.2275 284.0
47.2944 388.0
47.3612 348.0
47.4281 347.0
47.4949 360.0
47.5618 387.0
47.6286 329.0
47.6955 361.0
47.7623 413.0
47.8291 453.0
47.896 485.0
47.9628 455.0
48.0297 464.0
48.0965 442.0
48.1634 416.0
48.2302 457.0
48.2971 428.0
48.3639 440.0
48.4308 389.0
48.4976 386.0
48.5644 333.0
48.6313 369.0
48.6981 386.0
48.765 427.0
48.8318 486.0
48.8987 424.0
48.9655 458.0
49.0324 450.0
49.0992 478.0
49.1661 448.0
49.2329 453.0
49.2997 587.0
49.3666 567.0
49.4334 526.0
49.5003 489.0
49.5671 454.0
49.634 433.0
49.7008 400.0
49.7677 444.0
49.8345 369.0
49.9013 355.0
49.9682 351.0
50.035 351.0
50.1019 387.0
50.1687 341.0
50.2356 380.0
50.3024 372.0
50.3693 348.0
50.4361 319.0
50.503 329.0
50.5698 378.0
50.6366 382.0
50.7035 393.0
50.7703 401.0
50.8372 400.0
50.904 377.0
50.9709 413.0
51.0377 491.0
51.1046 532.0
51.1714 534.0
51.2382 512.0
51.3051 501.0
51.3719 461.0
51.4388 428.0
51.5056 344.0
51.5725 378.0
51.6393 362.0
51.7062 338.0
51.773 354.0
51.8399 372.0
51.9067 360.0
51.9735 360.0
52.0404 415.0
52.1072 431.0
52.1741 408.0
52.2409 414.0
52.3078 420.0
52.3746 397.0
52.4415 371.0
52.5083 392.0
52.5751 366.0
52.642 355.0
52.7088 419.0
52.7757 344.0
52.8425 358.0
52.9094 402.0
52.9762 341.0
53.0431 436.0
53.1099 389.0
53.1768 389.0
53.2436 350.0
53.3104 375.0
53.3773 341.0
53.4441 353.0
53.511 377.0
53.5778 388.0
53.6447 387.0
53.7115 386.0
53.7784 431.0
53.8452 429.0
53.9121 456.0
53.9789 410.0
54.0457 419.0
54.1126 434.0
54.1794 408.0
54.2463 395.0
54.3131 406.0
54.38 344.0
54.4468 341.0
54.5137 344.0
54.5805 362.0
54.6473 379.0
54.7142 352.0
54.781 375.0
54.8479 489.0
54.9147 488.0
54.9816 430.0
55.0484 490.0
55.1153 490.0
55.1821 433.0
55.249 401.0
55.3158 406.0
55.3826 446.0
55.4495 429.0
55.5163 424.0
55.5832 480.0
55.65 513.0
55.7169 471.0
55.7837 469.0
55.8506 438.0
55.9174 384.0
55.9842 386.0
56.0511 318.0
56.1179 382.0
56.1848 403.0
56.2516 410.0
56.3185 412.0
56.3853 473.0
56.4522 502.0
56.519 522.0
56.5859 500.0
56.6527 457.0
56.7195 410.0
56.7864 391.0
56.8532 367.0
56.9201 346.0
56.9869 401.0
57.0538 399.0
57.1206 385.0
57.1875 367.0
57.2543 349.0
57.3212 319.0
57.388 336.0
57.4548 346.0
57.5217 314.0
57.5885 346.0
57.6554 353.0
57.7222 375.0
57.7891 375.0
57.8559 341.0
57.9228 388.0
57.9896 341.0
58.0564 398.0
58.1233 357.0
58.1901 362.0
58.257 381.0
58.3238 347.0
58.3907 353.0
58.4575 336.0
58.5244 325.0
58.5912 363.0
58.6581 334.0
58.7249 334.0
58.7917 321.0
58.8586 303.0
58.9254 292.0
58.9923 307.0
59.0591 304.0
59.126 300.0
59.1928 297.0
59.2597 280.0
59.3265 301.0
59.3933 318.0
59.4602 332.0
59.527 321.0
59.5939 350.0
59.6607 345.0
59.7276 333.0
59.7944 355.0
59.8613 318.0
59.9281 340.0
59.995 325.0
60.0618 352.0
60.1286 376.0
60.1955 376.0
60.2623 403.0
60.3292 382.0
60.396 362.0
60.4629 353.0
60.5297 353.0
60.5966 365.0
60.6634 354.0
60.7302 378.0
60.7971 380.0
60.8639 335.0
60.9308 340.0
60.9976 292.0
61.0645 346.0
61.1313 324.0
61.1982 317.0
61.265 319.0
61.3319 370.0
61.3987 316.0
61.4655 294.0
61.5324 283.0
61.5992 319.0
61.6661 339.0
61.7329 323.0
61.7998 324.0
61.8666 320.0
61.9335 286.0
62.0003 355.0
62.0672 336.0
62.134 307.0
62.2008 311.0
62.2677 323.0
62.3345 304.0
62.4014 323.0
62.4682 309.0
62.5351 303.0
62.6019 311.0
62.6688 322.0
62.7356 307.0
62.8024 297.0
62.8693 311.0
62.9361 341.0
63.003 339.0
63.0698 303.0
63.1367 278.0
63.2035 280.0
63.2704 307.0
63.3372 280.0
63.4041 283.0
63.4709 278.0
63.5377 275.0
63.6046 278.0
63.6714 290.0
63.7383 304.0
63.8051 308.0
63.872 341.0
63.9388 315.0
64.0057 347.0
64.0725 291.0
64.1393 331.0
64.2062 320.0
64.273 301.0
64.3399 294.0
64.4067 303.0
64.4736 294.0
64.5404 336.0
64.6073 304.0
64.6741 294.0
64.741 306.0
64.8078 325.0
64.8746 297.0
64.9415 317.0
65.0083 329.0
65.0752 323.0
65.142 304.0
65.2089 302.0
65.2757 314.0
65.3426 263.0
65.4094 295.0
65.4762 340.0
65.5431 342.0
65.6099 342.0
65.6768 334.0
65.7436 331.0
65.8105 316.0
65.8773 318.0
65.9442 310.0
66.011 322.0
66.0779 358.0
66.1447 326.0
66.2115 330.0
66.2784 329.0
66.3452 298.0
66.4121 345.0
66.4789 318.0
66.5458 318.0
66.6126 355.0
66.6795 345.0
66.7463 358.0
66.8132 361.0
66.88 334.0
66.9468 352.0
67.0137 326.0
67.0805 320.0
67.1474 353.0
67.2142 350.0
67.2811 316.0
67.3479 385.0
67.4148 376.0
67.4816 389.0
67.5484 386.0
67.6153 362.0
67.6821 340.0
67.749 326.0
67.8158 369.0
67.8827 322.0
67.9495 319.0
68.0164 290.0
68.0832 299.0
68.1501 304.0
68.2169 302.0
68.2837 338.0
68.3506 317.0
68.4174 293.0
68.4843 287.0
68.5511 314.0
68.618 347.0
68.6848 292.0
68.7517 295.0
68.8185 308.0
68.8853 271.0
68.9522 286.0
69.019 294.0
69.0859 338.0
69.1527 302.0
69.2196 288.0
69.2864 276.0
69.3533 285.0
69.4201 289.0
69.487 298.0
69.5538 257.0
69.6206 283.0
69.6875 278.0
69.7543 287.0
69.8212 306.0
69.888 277.0
69.9549 309.0
70.0217 325.0
70.0886 303.0
70.1554 286.0
70.2222 272.0
70.2891 304.0
70.3559 311.0
70.4228 301.0
70.4896 345.0
70.5565 262.0
70.6233 307.0
70.6902 313.0
70.757 292.0
70.8239 344.0
70.8907 294.0
70.9575 310.0
71.0244 352.0
71.0912 322.0
71.1581 314.0
71.2249 311.0
71.2918 297.0
71.3586 290.0
71.4255 282.0
71.4923 300.0
71.5592 273.0
71.626 287.0
71.6928 306.0
71.7597 303.0
71.8265 304.0
71.8934 289.0
71.9602 310.0
72.0271 298.0
72.0939 323.0
72.1608 309.0
72.2276 277.0
72.2944 290.0
72.3613 259.0
72.4281 289.0
72.495 256.0
72.5618 273.0
72.6287 287.0
72.6955 252.0
72.7624 248.0
72.8292 228.0
72.8961 275.0
72.9629 255.0
73.0297 269.0
73.0966 266.0
73.1634 270.0
73.2303 276.0
73.2971 286.0
73.364 271.0
73.4308 270.0
73.4977 242.0
73.5645 227.0
73.6313 278.0
73.6982 263.0
73.765 227.0
73.8319 278.0
73.8987 271.0
73.9656 303.0
74.0324 305.0
74.0993 271.0
74.1661 237.0
74.233 264.0
74.2998 287.0
74.3666 262.0
74.4335 232.0
74.5003 283.0
74.5672 231.0
74.634 285.0
74.7009 275.0
74.7677 258.0
74.8346 264.0
74.9014 264.0
74.9683 293.0
75.0351 282.0
75.1019 273.0
75.1688 279.0
75.2356 230.0
75.3025 276.0
75.3693 268.0
75.4362 279.0
75.503 287.0
75.5699 306.0
75.6367 283.0
75.7035 266.0
75.7704 286.0
75.8372 267.0
75.9041 282.0
75.9709 267.0
76.0378 269.0
76.1046 287.0
76.1715 279.0
76.2383 282.0
76.3052 287.0
76.372 282.0
76.4388 240.0
76.5057 257.0
76.5725 256.0
76.6394 221.0
76.7062 242.0
76.7731 230.0
76.8399 247.0
76.9068 238.0
76.9736 220.0
77.0404 241.0
77.1073 236.0
77.1741 253.0
77.241 240.0
77.3078 254.0
77.3747 219.0
77.4415 221.0
77.5084 242.0
77.5752 233.0
77.6421 262.0
77.7089 252.0
77.7757 269.0
77.8426 276.0
77.9094 283.0
77.9763 282.0
78.0431 248.0
78.11 251.0
78.1768 255.0
78.2437 235.0
78.3105 229.0
78.3773 231.0
78.4442 216.0
78.511 223.0
78.5779 236.0
78.6447 214.0
78.7116 205.0
78.7784 231.0
78.8453 259.0
78.9121 251.0
78.979 238.0
79.0458 220.0
79.1126 232.0
79.1795 242.0
79.2463 235.0
79.3132 217.0
79.38 220.0
79.4469 193.0
79.5137 213.0
79.5806 199.0
79.6474 213.0
79.7143 211.0
79.7811 235.0
79.8479 186.0
79.9148 238.0
79.9816 219.0
80.0485 222.0
80.1153 226.0
80.1822 233.0
80.249 229.0
80.3159 185.0
80.3827 225.0
80.4495 225.0
80.5164 197.0
80.5832 198.0
80.6501 215.0
80.7169 231.0
80.7838 184.0
80.8506 206.0
80.9175 222.0
80.9843 227.0
81.0512 208.0
81.118 204.0
81.1848 217.0
81.2517 190.0
81.3185 192.0
81.3854 216.0
81.4522 216.0
81.5191 185.0
81.5859 210.0
81.6528 188.0
81.7196 206.0
81.7864 213.0
81.8533 222.0
81.9201 199.0
81.987 228.0
82.0538 217.0
82.1207 195.0
82.1875 217.0
82.2544 214.0
82.3212 209.0
82.3881 183.0
82.4549 208.0
82.5217 198.0
82.5886 189.0
82.6554 195.0
82.7223 193.0
82.7891 185.0
82.856 184.0
82.9228 198.0
82.9897 177.0
83.0565 180.0
83.1233 161.0
83.1902 163.0
83.257 165.0
83.3239 183.0
83.3907 207.0
83.4576 200.0
83.5244 165.0
83.5913 212.0
83.6581 179.0
83.725 201.0
83.7918 183.0
83.8586 199.0
83.9255 189.0
83.9923 185.0
84.0592 203.0
84.126 196.0
84.1929 168.0
84.2597 192.0
84.3266 173.0
84.3934 155.0
84.4603 185.0
84.5271 165.0
84.5939 163.0
84.6608 178.0
84.7276 161.0
84.7945 166.0
84.8613 176.0
84.9282 167.0
84.995 165.0
85.0619 184.0
85.1287 161.0
85.1955 195.0
85.2624 179.0
85.3292 190.0
85.3961 175.0
85.4629 162.0
85.5298 190.0
85.5966 159.0
85.6635 185.0
85.7303 172.0
85.7972 159.0
85.864 185.0
85.9308 189.0
85.9977 165.0
86.0645 172.0
86.1314 235.0
86.1982 168.0
86.2651 219.0
86.3319 212.0
86.3988 176.0
86.4656 165.0
86.5324 181.0
86.5993 153.0
86.6661 148.0
86.733 176.0
86.7998 169.0
86.8667 190.0
86.9335 162.0
87.0004 160.0
87.0672 163.0
87.1341 138.0
87.2009 162.0
87.2677 157.0
87.3346 157.0
87.4014 161.0
87.4683 145.0
87.5351 132.0
87.602 158.0
87.6688 164.0
87.7357 161.0
87.8025 176.0
87.8693 135.0
87.9362 160.0
88.003 153.0
88.0699 145.0
88.1367 141.0
88.2036 178.0
88.2704 162.0
88.3373 146.0
88.4041 176.0
88.471 167.0
88.5378 162.0
88.6046 129.0
88.6715 178.0
88.7383 152.0
88.8052 158.0
88.872 143.0
88.9389 176.0
89.0057 155.0
89.0726 164.0
89.1394 155.0
89.2063 143.0
89.2731 179.0
89.3399 165.0
89.4068 155.0
89.4736 136.0
89.5405 153.0
89.6073 143.0
89.6742 160.0
89.741 132.0
89.8079 141.0
89.8747 135.0
89.9415 151.0