File: code/XRD_Analysis/Zeolites/data_files/SAPO-14/calc/20241028_SAPO-14-3-calc-Probe-3.xy
4.98146 961.0
5.0483 920.0
5.11515 965.0
5.18199 918.0
5.24884 918.0
5.31568 902.0
5.38253 867.0
5.44937 857.0
5.51622 884.0
5.58306 840.0
5.64991 837.0
5.71675 819.0
5.7836 782.0
5.85044 809.0
5.91729 789.0
5.98413 809.0
6.05098 797.0
6.11782 783.0
6.18467 751.0
6.25151 784.0
6.31836 768.0
6.3852 750.0
6.45205 745.0
6.51889 751.0
6.58574 751.0
6.65258 699.0
6.71943 720.0
6.78627 705.0
6.85312 716.0
6.91996 716.0
6.98681 735.0
7.05365 660.0
7.1205 685.0
7.18734 649.0
7.25419 670.0
7.32103 689.0
7.38788 667.0
7.45472 695.0
7.52157 705.0
7.58841 685.0
7.65526 700.0
7.7221 660.0
7.78895 630.0
7.85579 666.0
7.92264 649.0
7.98948 639.0
8.05633 619.0
8.12317 637.0
8.19002 669.0
8.25686 683.0
8.32371 708.0
8.39055 673.0
8.4574 688.0
8.52424 745.0
8.59109 816.0
8.65793 918.0
8.72478 1166.0
8.79162 1877.0
8.85847 3756.0
8.92532 6281.0
8.99216 3233.0
9.05901 1675.0
9.12585 945.0
9.1927 665.0
9.25954 615.0
9.32639 657.0
9.39323 753.0
9.46008 1151.0
9.52692 1905.0
9.59377 920.0
9.66061 563.0
9.72746 585.0
9.7943 532.0
9.86115 553.0
9.92799 519.0
9.99484 492.0
10.0617 527.0
10.1285 514.0
10.1954 529.0
10.2622 491.0
10.3291 517.0
10.3959 502.0
10.4628 528.0
10.5296 519.0
10.5964 501.0
10.6633 453.0
10.7301 521.0
10.797 596.0
10.8638 714.0
10.9307 754.0
10.9975 641.0
11.0644 776.0
11.1312 1168.0
11.198 1624.0
11.2649 914.0
11.3317 575.0
11.3986 568.0
11.4654 548.0
11.5323 533.0
11.5991 588.0
11.666 554.0
11.7328 621.0
11.7997 753.0
11.8665 1053.0
11.9333 1715.0
12.0002 1787.0
12.067 823.0
12.1339 556.0
12.2007 488.0
12.2676 456.0
12.3344 503.0
12.4013 471.0
12.4681 507.0
12.5349 467.0
12.6018 485.0
12.6686 477.0
12.7355 501.0
12.8023 486.0
12.8692 570.0
12.936 750.0
13.0029 899.0
13.0697 1768.0
13.1366 3980.0
13.2034 3492.0
13.2702 1112.0
13.3371 685.0
13.4039 641.0
13.4708 711.0
13.5376 888.0
13.6045 1569.0
13.6713 3314.0
13.7382 3321.0
13.805 1199.0
13.8719 736.0
13.9387 844.0
14.0055 901.0
14.0724 922.0
14.1392 1057.0
14.2061 828.0
14.2729 616.0
14.3398 503.0
14.4066 500.0
14.4735 457.0
14.5403 458.0
14.6071 469.0
14.674 432.0
14.7408 393.0
14.8077 409.0
14.8745 429.0
14.9414 426.0
15.0082 409.0
15.0751 391.0
15.1419 395.0
15.2088 424.0
15.2756 406.0
15.3424 395.0
15.4093 481.0
15.4761 707.0
15.543 1347.0
15.6098 1494.0
15.6767 825.0
15.7435 582.0
15.8104 570.0
15.8772 489.0
15.944 463.0
16.0109 487.0
16.0777 517.0
16.1446 558.0
16.2114 628.0
16.2783 839.0
16.3451 738.0
16.412 508.0
16.4788 438.0
16.5457 527.0
16.6125 534.0
16.6793 610.0
16.7462 505.0
16.813 395.0
16.8799 389.0
16.9467 391.0
17.0136 409.0
17.0804 426.0
17.1473 407.0
17.2141 440.0
17.2809 451.0
17.3478 467.0
17.4146 491.0
17.4815 526.0
17.5483 518.0
17.6152 550.0
17.682 575.0
17.7489 734.0
17.8157 1128.0
17.8826 2157.0
17.9494 4101.0
18.0162 3404.0
18.0831 1962.0
18.1499 1563.0
18.2168 1345.0
18.2836 1036.0
18.3505 1178.0
18.4173 1409.0
18.4842 829.0
18.551 594.0
18.6179 532.0
18.6847 459.0
18.7515 463.0
18.8184 526.0
18.8852 694.0
18.9521 1082.0
19.0189 1150.0
19.0858 752.0
19.1526 701.0
19.2195 617.0
19.2863 560.0
19.3531 543.0
19.42 638.0
19.4868 837.0
19.5537 1008.0
19.6205 931.0
19.6874 1117.0
19.7542 1246.0
19.8211 802.0
19.8879 568.0
19.9548 535.0
20.0216 498.0
20.0884 489.0
20.1553 451.0
20.2221 482.0
20.289 450.0
20.3558 554.0
20.4227 777.0
20.4895 1401.0
20.5564 1663.0
20.6232 972.0
20.69 798.0
20.7569 1003.0
20.8237 892.0
20.8906 787.0
20.9574 1133.0
21.0243 1600.0
21.0911 1334.0
21.158 1208.0
21.2248 1161.0
21.2917 1006.0
21.3585 1153.0
21.4253 1460.0
21.4922 1329.0
21.559 1352.0
21.6259 1248.0
21.6927 1205.0
21.7596 1625.0
21.8264 2034.0
21.8933 1964.0
21.9601 2169.0
22.0269 2081.0
22.0938 1406.0
22.1606 1027.0
22.2275 971.0
22.2943 913.0
22.3612 818.0
22.428 851.0
22.4949 942.0
22.5617 1175.0
22.6286 1471.0
22.6954 1938.0
22.7622 1607.0
22.8291 991.0
22.8959 753.0
22.9628 647.0
23.0296 683.0
23.0965 752.0
23.1633 744.0
23.2302 830.0
23.297 1221.0
23.3639 1455.0
23.4307 1070.0
23.4975 782.0
23.5644 729.0
23.6312 692.0
23.6981 647.0
23.7649 619.0
23.8318 549.0
23.8986 670.0
23.9655 670.0
24.0323 645.0
24.0991 815.0
24.166 966.0
24.2328 829.0
24.2997 705.0
24.3665 556.0
24.4334 565.0
24.5002 526.0
24.5671 542.0
24.6339 599.0
24.7008 751.0
24.7676 1129.0
24.8344 1277.0
24.9013 1087.0
24.9681 816.0
25.035 846.0
25.1018 789.0
25.1687 833.0
25.2355 761.0
25.3024 739.0
25.3692 779.0
25.436 805.0
25.5029 731.0
25.5697 691.0
25.6366 708.0
25.7034 762.0
25.7703 828.0
25.8371 900.0
25.904 928.0
25.9708 709.0
26.0377 688.0
26.1045 650.0
26.1713 736.0
26.2382 816.0
26.305 1274.0
26.3719 1840.0
26.4387 1922.0
26.5056 1880.0
26.5724 2108.0
26.6393 1814.0
26.7061 1312.0
26.773 1239.0
26.8398 1089.0
26.9066 1098.0
26.9735 1300.0
27.0403 1640.0
27.1072 2430.0
27.174 2615.0
27.2409 3009.0
27.3077 3699.0
27.3746 3890.0
27.4414 2541.0
27.5082 1775.0
27.5751 1721.0
27.6419 1611.0
27.7088 1273.0
27.7756 937.0
27.8425 777.0
27.9093 837.0
27.9762 790.0
28.043 900.0
28.1099 894.0
28.1767 763.0
28.2435 645.0
28.3104 612.0
28.3772 629.0
28.4441 722.0
28.5109 802.0
28.5778 800.0
28.6446 991.0
28.7115 1000.0
28.7783 919.0
28.8451 844.0
28.912 789.0
28.9788 847.0
29.0457 1462.0
29.1125 3004.0
29.1794 3542.0
29.2462 2558.0
29.3131 1596.0
29.3799 1231.0
29.4468 1176.0
29.5136 1294.0
29.5804 1667.0
29.6473 2332.0
29.7141 2116.0
29.781 1817.0
29.8478 1627.0
29.9147 1613.0
29.9815 1778.0
30.0484 1878.0
30.1152 1814.0
30.182 1613.0
30.2489 1433.0
30.3157 1149.0
30.3826 929.0
30.4494 870.0
30.5163 810.0
30.5831 806.0
30.65 926.0
30.7168 1120.0
30.7837 1423.0
30.8505 2179.0
30.9173 2315.0
30.9842 1760.0
31.051 1240.0
31.1179 901.0
31.1847 726.0
31.2516 713.0
31.3184 727.0
31.3853 762.0
31.4521 823.0
31.519 742.0
31.5858 720.0
31.6526 649.0
31.7195 604.0
31.7863 601.0
31.8532 653.0
31.92 912.0
31.9869 1188.0
32.0537 1227.0
32.1206 1107.0
32.1874 910.0
32.2542 781.0
32.3211 699.0
32.3879 737.0
32.4548 678.0
32.5216 724.0
32.5885 623.0
32.6553 629.0
32.7222 653.0
32.789 792.0
32.8559 766.0
32.9227 911.0
32.9895 1033.0
33.0564 850.0
33.1232 690.0
33.1901 661.0
33.2569 747.0
33.3238 918.0
33.3906 907.0
33.4575 775.0
33.5243 614.0
33.5911 578.0
33.658 529.0
33.7248 477.0
33.7917 482.0
33.8585 541.0
33.9254 514.0
33.9922 631.0
34.0591 630.0
34.1259 641.0
34.1928 563.0
34.2596 567.0
34.3264 509.0
34.3933 476.0
34.4601 420.0
34.527 404.0
34.5938 435.0
34.6607 420.0
34.7275 427.0
34.7944 372.0
34.8612 384.0
34.928 379.0
34.9949 378.0
35.0617 434.0
35.1286 478.0
35.1954 619.0
35.2623 662.0
35.3291 565.0
35.396 477.0
35.4628 531.0
35.5297 569.0
35.5965 583.0
35.6633 635.0
35.7302 571.0
35.797 584.0
35.8639 576.0
35.9307 547.0
35.9976 586.0
36.0644 644.0
36.1313 705.0
36.1981 675.0
36.265 612.0
36.3318 603.0
36.3986 685.0
36.4655 719.0
36.5323 725.0
36.5992 631.0
36.666 732.0
36.7329 710.0
36.7997 618.0
36.8666 566.0
36.9334 488.0
37.0002 446.0
37.0671 441.0
37.1339 502.0
37.2008 490.0
37.2676 443.0
37.3345 466.0
37.4013 494.0
37.4682 408.0
37.535 399.0
37.6019 443.0
37.6687 365.0
37.7355 349.0
37.8024 353.0
37.8692 368.0
37.9361 355.0
38.0029 340.0
38.0698 346.0
38.1366 383.0
38.2035 439.0
38.2703 466.0
38.3371 433.0
38.404 381.0
38.4708 353.0
38.5377 385.0
38.6045 391.0
38.6714 360.0
38.7382 345.0
38.8051 356.0
38.8719 363.0
38.9388 371.0
39.0056 382.0
39.0724 365.0
39.1393 378.0
39.2061 419.0
39.273 392.0
39.3398 373.0
39.4067 324.0
39.4735 320.0
39.5404 351.0
39.6072 383.0
39.6741 456.0
39.7409 516.0
39.8077 604.0
39.8746 525.0
39.9414 467.0
40.0083 461.0
40.0751 503.0
40.142 465.0
40.2088 471.0
40.2757 407.0
40.3425 338.0
40.4093 352.0
40.4762 352.0
40.543 399.0
40.6099 398.0
40.6767 400.0
40.7436 420.0
40.8104 350.0
40.8773 403.0
40.9441 323.0
41.011 350.0
41.0778 345.0
41.1446 329.0
41.2115 313.0
41.2783 291.0
41.3452 294.0
41.412 287.0
41.4789 307.0
41.5457 301.0
41.6126 335.0
41.6794 366.0
41.7462 428.0
41.8131 395.0
41.8799 464.0
41.9468 399.0
42.0136 392.0
42.0805 373.0
42.1473 380.0
42.2142 431.0
42.281 446.0
42.3479 477.0
42.4147 458.0
42.4815 372.0
42.5484 384.0
42.6152 339.0
42.6821 370.0
42.7489 361.0
42.8158 323.0
42.8826 284.0
42.9495 280.0
43.0163 285.0
43.0831 297.0
43.15 282.0
43.2168 379.0
43.2837 336.0
43.3505 395.0
43.4174 357.0
43.4842 358.0
43.5511 379.0
43.6179 383.0
43.6848 396.0
43.7516 330.0
43.8184 358.0
43.8853 351.0
43.9521 293.0
44.019 319.0
44.0858 345.0
44.1527 371.0
44.2195 375.0
44.2864 375.0
44.3532 369.0
44.4201 357.0
44.4869 377.0
44.5537 431.0
44.6206 415.0
44.6874 403.0
44.7543 383.0
44.8211 378.0
44.888 344.0
44.9548 318.0
45.0217 292.0
45.0885 274.0
45.1553 282.0
45.2222 333.0
45.289 336.0
45.3559 358.0
45.4227 354.0
45.4896 391.0
45.5564 445.0
45.6233 477.0
45.6901 422.0
45.757 382.0
45.8238 326.0
45.8906 325.0
45.9575 341.0
46.0243 389.0
46.0912 407.0
46.158 473.0
46.2249 442.0
46.2917 456.0
46.3586 354.0
46.4254 368.0
46.4922 345.0
46.5591 338.0
46.6259 377.0
46.6928 348.0
46.7596 354.0
46.8265 341.0
46.8933 333.0
46.9602 371.0
47.027 302.0
47.0939 306.0
47.1607 310.0
47.2275 356.0
47.2944 322.0
47.3612 379.0
47.4281 388.0
47.4949 383.0
47.5618 389.0
47.6286 386.0
47.6955 391.0
47.7623 422.0
47.8291 476.0
47.896 411.0
47.9628 347.0
48.0297 362.0
48.0965 323.0
48.1634 317.0
48.2302 334.0
48.2971 323.0
48.3639 282.0
48.4308 311.0
48.4976 303.0
48.5644 339.0
48.6313 385.0
48.6981 432.0
48.765 487.0
48.8318 471.0
48.8987 454.0
48.9655 469.0
49.0324 438.0
49.0992 404.0
49.1661 397.0
49.2329 308.0
49.2997 395.0
49.3666 388.0
49.4334 381.0
49.5003 411.0
49.5671 373.0
49.634 393.0
49.7008 360.0
49.7677 337.0
49.8345 338.0
49.9013 308.0
49.9682 287.0
50.035 303.0
50.1019 297.0
50.1687 306.0
50.2356 304.0
50.3024 316.0
50.3693 300.0
50.4361 283.0
50.503 319.0
50.5698 319.0
50.6366 302.0
50.7035 330.0
50.7703 363.0
50.8372 396.0
50.904 440.0
50.9709 430.0
51.0377 366.0
51.1046 356.0
51.1714 363.0
51.2382 324.0
51.3051 303.0
51.3719 355.0
51.4388 344.0
51.5056 360.0
51.5725 346.0
51.6393 360.0
51.7062 379.0
51.773 412.0
51.8399 339.0
51.9067 313.0
51.9735 324.0
52.0404 321.0
52.1072 316.0
52.1741 336.0
52.2409 314.0
52.3078 322.0
52.3746 356.0
52.4415 314.0
52.5083 306.0
52.5751 333.0
52.642 364.0
52.7088 395.0
52.7757 364.0
52.8425 347.0
52.9094 348.0
52.9762 354.0
53.0431 318.0
53.1099 297.0
53.1768 295.0
53.2436 284.0
53.3104 287.0
53.3773 288.0
53.4441 357.0
53.511 356.0
53.5778 373.0
53.6447 338.0
53.7115 396.0
53.7784 428.0
53.8452 410.0
53.9121 351.0
53.9789 357.0
54.0457 354.0
54.1126 331.0
54.1794 299.0
54.2463 316.0
54.3131 349.0
54.38 337.0
54.4468 333.0
54.5137 318.0
54.5805 314.0
54.6473 344.0
54.7142 351.0
54.781 417.0
54.8479 384.0
54.9147 442.0
54.9816 453.0
55.0484 472.0
55.1153 416.0
55.1821 461.0
55.249 386.0
55.3158 380.0
55.3826 400.0
55.4495 362.0
55.5163 382.0
55.5832 423.0
55.65 411.0
55.7169 408.0
55.7837 414.0
55.8506 391.0
55.9174 417.0
55.9842 473.0
56.0511 453.0
56.1179 455.0
56.1848 398.0
56.2516 354.0
56.3185 363.0
56.3853 303.0
56.4522 304.0
56.519 302.0
56.5859 306.0
56.6527 349.0
56.7195 373.0
56.7864 351.0
56.8532 333.0
56.9201 373.0
56.9869 334.0
57.0538 338.0
57.1206 337.0
57.1875 339.0
57.2543 352.0
57.3212 340.0
57.388 335.0
57.4548 393.0
57.5217 385.0
57.5885 402.0
57.6554 340.0
57.7222 370.0
57.7891 365.0
57.8559 341.0
57.9228 321.0
57.9896 345.0
58.0564 368.0
58.1233 335.0
58.1901 341.0
58.257 288.0
58.3238 277.0
58.3907 298.0
58.4575 319.0
58.5244 315.0
58.5912 325.0
58.6581 314.0
58.7249 315.0
58.7917 313.0
58.8586 246.0
58.9254 267.0
58.9923 269.0
59.0591 290.0
59.126 308.0
59.1928 318.0
59.2597 354.0
59.3265 326.0
59.3933 329.0
59.4602 298.0
59.527 285.0
59.5939 306.0
59.6607 301.0
59.7276 294.0
59.7944 277.0
59.8613 278.0
59.9281 320.0
59.995 316.0
60.0618 328.0
60.1286 340.0
60.1955 315.0
60.2623 326.0
60.3292 333.0
60.396 358.0
60.4629 360.0
60.5297 365.0
60.5966 402.0
60.6634 368.0
60.7302 350.0
60.7971 298.0
60.8639 358.0
60.9308 344.0
60.9976 288.0
61.0645 320.0
61.1313 292.0
61.1982 309.0
61.265 276.0
61.3319 260.0
61.3987 301.0
61.4655 248.0
61.5324 287.0
61.5992 246.0
61.6661 271.0
61.7329 278.0
61.7998 245.0
61.8666 280.0
61.9335 267.0
62.0003 247.0
62.0672 266.0
62.134 297.0
62.2008 264.0
62.2677 278.0
62.3345 297.0
62.4014 291.0
62.4682 293.0
62.5351 323.0
62.6019 285.0
62.6688 293.0
62.7356 322.0
62.8024 246.0
62.8693 274.0
62.9361 273.0
63.003 271.0
63.0698 246.0
63.1367 263.0
63.2035 289.0
63.2704 270.0
63.3372 273.0
63.4041 251.0
63.4709 286.0
63.5377 300.0
63.6046 338.0
63.6714 323.0
63.7383 317.0
63.8051 302.0
63.872 298.0
63.9388 325.0
64.0057 310.0
64.0725 291.0
64.1393 274.0
64.2062 246.0
64.273 258.0
64.3399 262.0
64.4067 254.0
64.4736 257.0
64.5404 251.0
64.6073 290.0
64.6741 310.0
64.741 283.0
64.8078 291.0
64.8746 269.0
64.9415 268.0
65.0083 254.0
65.0752 282.0
65.142 310.0
65.2089 307.0
65.2757 291.0
65.3426 280.0
65.4094 295.0
65.4762 320.0
65.5431 303.0
65.6099 335.0
65.6768 348.0
65.7436 328.0
65.8105 329.0
65.8773 320.0
65.9442 299.0
66.011 306.0
66.0779 338.0
66.1447 251.0
66.2115 277.0
66.2784 263.0
66.3452 289.0
66.4121 286.0
66.4789 307.0
66.5458 257.0
66.6126 288.0
66.6795 282.0
66.7463 279.0
66.8132 252.0
66.88 286.0
66.9468 319.0
67.0137 297.0
67.0805 332.0
67.1474 314.0
67.2142 361.0
67.2811 372.0
67.3479 363.0
67.4148 340.0
67.4816 357.0
67.5484 335.0
67.6153 301.0
67.6821 325.0
67.749 320.0
67.8158 284.0
67.8827 302.0
67.9495 278.0
68.0164 243.0
68.0832 276.0
68.1501 288.0
68.2169 252.0
68.2837 283.0
68.3506 273.0
68.4174 267.0
68.4843 271.0
68.5511 258.0
68.618 279.0
68.6848 280.0
68.7517 295.0
68.8185 276.0
68.8853 287.0
68.9522 286.0
69.019 243.0
69.0859 285.0
69.1527 271.0
69.2196 242.0
69.2864 264.0
69.3533 252.0
69.4201 255.0
69.487 245.0
69.5538 238.0
69.6206 282.0
69.6875 275.0
69.7543 256.0
69.8212 279.0
69.888 263.0
69.9549 300.0
70.0217 330.0
70.0886 303.0
70.1554 264.0
70.2222 315.0
70.2891 353.0
70.3559 339.0
70.4228 349.0
70.4896 318.0
70.5565 305.0
70.6233 280.0
70.6902 256.0
70.757 259.0
70.8239 254.0
70.8907 264.0
70.9575 269.0
71.0244 270.0
71.0912 268.0
71.1581 259.0
71.2249 266.0
71.2918 260.0
71.3586 268.0
71.4255 250.0
71.4923 236.0
71.5592 255.0
71.626 274.0
71.6928 275.0
71.7597 245.0
71.8265 275.0
71.8934 274.0
71.9602 257.0
72.0271 257.0
72.0939 241.0
72.1608 247.0
72.2276 277.0
72.2944 242.0
72.3613 235.0
72.4281 229.0
72.495 230.0
72.5618 214.0
72.6287 236.0
72.6955 222.0
72.7624 264.0
72.8292 255.0
72.8961 233.0
72.9629 263.0
73.0297 222.0
73.0966 248.0
73.1634 256.0
73.2303 204.0
73.2971 230.0
73.364 248.0
73.4308 270.0
73.4977 244.0
73.5645 220.0
73.6313 222.0
73.6982 232.0
73.765 244.0
73.8319 226.0
73.8987 245.0
73.9656 232.0
74.0324 228.0
74.0993 207.0
74.1661 251.0
74.233 268.0
74.2998 255.0
74.3666 262.0
74.4335 229.0
74.5003 248.0
74.5672 286.0
74.634 250.0
74.7009 269.0
74.7677 241.0
74.8346 254.0
74.9014 238.0
74.9683 235.0
75.0351 242.0
75.1019 225.0
75.1688 235.0
75.2356 247.0
75.3025 225.0
75.3693 222.0
75.4362 263.0
75.503 239.0
75.5699 254.0
75.6367 270.0
75.7035 271.0
75.7704 252.0
75.8372 258.0
75.9041 237.0
75.9709 254.0
76.0378 223.0
76.1046 220.0
76.1715 210.0
76.2383 245.0
76.3052 209.0
76.372 232.0
76.4388 198.0
76.5057 194.0
76.5725 186.0
76.6394 189.0
76.7062 247.0
76.7731 207.0
76.8399 246.0
76.9068 242.0
76.9736 224.0
77.0404 229.0
77.1073 250.0
77.1741 238.0
77.241 269.0
77.3078 256.0
77.3747 276.0
77.4415 271.0
77.5084 257.0
77.5752 207.0
77.6421 207.0
77.7089 255.0
77.7757 232.0
77.8426 232.0
77.9094 211.0
77.9763 227.0
78.0431 241.0
78.11 238.0
78.1768 251.0
78.2437 250.0
78.3105 216.0
78.3773 227.0
78.4442 200.0
78.511 204.0
78.5779 223.0
78.6447 206.0
78.7116 198.0
78.7784 241.0
78.8453 215.0
78.9121 205.0
78.979 191.0
79.0458 193.0
79.1126 212.0
79.1795 199.0
79.2463 178.0
79.3132 191.0
79.38 211.0
79.4469 190.0
79.5137 197.0
79.5806 174.0
79.6474 198.0
79.7143 211.0
79.7811 214.0
79.8479 207.0
79.9148 236.0
79.9816 212.0
80.0485 185.0
80.1153 193.0
80.1822 180.0
80.249 201.0
80.3159 172.0
80.3827 194.0
80.4495 174.0
80.5164 181.0
80.5832 161.0
80.6501 184.0
80.7169 155.0
80.7838 185.0
80.8506 164.0
80.9175 174.0
80.9843 197.0
81.0512 169.0
81.118 186.0
81.1848 170.0
81.2517 182.0
81.3185 190.0
81.3854 165.0
81.4522 195.0
81.5191 179.0
81.5859 188.0
81.6528 181.0
81.7196 206.0
81.7864 182.0
81.8533 213.0
81.9201 183.0
81.987 151.0
82.0538 177.0
82.1207 214.0
82.1875 182.0
82.2544 184.0
82.3212 189.0
82.3881 167.0
82.4549 174.0
82.5217 177.0
82.5886 174.0
82.6554 182.0
82.7223 184.0
82.7891 176.0
82.856 173.0
82.9228 161.0
82.9897 169.0
83.0565 178.0
83.1233 151.0
83.1902 158.0
83.257 165.0
83.3239 174.0
83.3907 155.0
83.4576 152.0
83.5244 162.0
83.5913 164.0
83.6581 148.0
83.725 164.0
83.7918 164.0
83.8586 154.0
83.9255 160.0
83.9923 170.0
84.0592 159.0
84.126 166.0
84.1929 151.0
84.2597 170.0
84.3266 157.0
84.3934 149.0
84.4603 154.0
84.5271 139.0
84.5939 172.0
84.6608 157.0
84.7276 155.0
84.7945 166.0
84.8613 173.0
84.9282 180.0
84.995 166.0
85.0619 173.0
85.1287 184.0
85.1955 174.0
85.2624 137.0
85.3292 182.0
85.3961 175.0
85.4629 185.0
85.5298 183.0
85.5966 162.0
85.6635 148.0
85.7303 159.0
85.7972 174.0
85.864 196.0
85.9308 177.0
85.9977 174.0
86.0645 169.0
86.1314 192.0
86.1982 168.0
86.2651 190.0
86.3319 142.0
86.3988 169.0
86.4656 153.0
86.5324 147.0
86.5993 161.0
86.6661 174.0
86.733 133.0
86.7998 150.0
86.8667 162.0
86.9335 133.0
87.0004 154.0
87.0672 152.0
87.1341 160.0
87.2009 177.0
87.2677 158.0
87.3346 146.0
87.4014 148.0
87.4683 172.0
87.5351 154.0
87.602 135.0
87.6688 131.0
87.7357 125.0
87.8025 125.0
87.8693 144.0
87.9362 129.0
88.003 122.0
88.0699 163.0
88.1367 139.0
88.2036 168.0
88.2704 129.0
88.3373 147.0
88.4041 159.0
88.471 167.0
88.5378 153.0
88.6046 123.0
88.6715 145.0
88.7383 145.0
88.8052 173.0
88.872 167.0
88.9389 126.0
89.0057 142.0
89.0726 141.0
89.1394 157.0
89.2063 167.0
89.2731 122.0
89.3399 160.0
89.4068 155.0
89.4736 149.0
89.5405 146.0
89.6073 150.0
89.6742 141.0
89.741 118.0
89.8079 122.0
89.8747 137.0
89.9415 123.0