File: code/XRD_Analysis/Zeolites/data_files/SAPO-14/calc/20241113_SAPO-14-4_calc_Probe-1.xy
4.98146 937.0
5.0483 964.0
5.11515 918.0
5.18199 940.0
5.24884 860.0
5.31568 867.0
5.38253 887.0
5.44937 859.0
5.51622 800.0
5.58306 782.0
5.64991 764.0
5.71675 853.0
5.7836 845.0
5.85044 817.0
5.91729 814.0
5.98413 822.0
6.05098 755.0
6.11782 814.0
6.18467 723.0
6.25151 764.0
6.31836 696.0
6.3852 691.0
6.45205 722.0
6.51889 685.0
6.58574 642.0
6.65258 690.0
6.71943 706.0
6.78627 722.0
6.85312 682.0
6.91996 681.0
6.98681 645.0
7.05365 609.0
7.1205 694.0
7.18734 609.0
7.25419 654.0
7.32103 644.0
7.38788 600.0
7.45472 637.0
7.52157 591.0
7.58841 598.0
7.65526 673.0
7.7221 632.0
7.78895 553.0
7.85579 623.0
7.92264 582.0
7.98948 599.0
8.05633 560.0
8.12317 618.0
8.19002 598.0
8.25686 569.0
8.32371 573.0
8.39055 557.0
8.4574 599.0
8.52424 607.0
8.59109 635.0
8.65793 684.0
8.72478 741.0
8.79162 904.0
8.85847 1365.0
8.92532 2865.0
8.99216 7652.0
9.05901 9382.0
9.12585 3499.0
9.1927 1291.0
9.25954 750.0
9.32639 612.0
9.39323 621.0
9.46008 668.0
9.52692 853.0
9.59377 984.0
9.66061 595.0
9.72746 527.0
9.7943 453.0
9.86115 462.0
9.92799 473.0
9.99484 501.0
10.0617 496.0
10.1285 400.0
10.1954 445.0
10.2622 446.0
10.3291 450.0
10.3959 464.0
10.4628 426.0
10.5296 487.0
10.5964 455.0
10.6633 434.0
10.7301 460.0
10.797 496.0
10.8638 441.0
10.9307 568.0
10.9975 740.0
11.0644 755.0
11.1312 652.0
11.198 826.0
11.2649 1528.0
11.3317 1322.0
11.3986 622.0
11.4654 464.0
11.5323 435.0
11.5991 420.0
11.666 414.0
11.7328 503.0
11.7997 502.0
11.8665 641.0
11.9333 1003.0
12.0002 1945.0
12.067 2356.0
12.1339 1075.0
12.2007 526.0
12.2676 444.0
12.3344 367.0
12.4013 371.0
12.4681 364.0
12.5349 387.0
12.6018 393.0
12.6686 399.0
12.7355 399.0
12.8023 376.0
12.8692 425.0
12.936 419.0
13.0029 523.0
13.0697 674.0
13.1366 1333.0
13.2034 3706.0
13.2702 4987.0
13.3371 1799.0
13.4039 634.0
13.4708 555.0
13.5376 570.0
13.6045 740.0
13.6713 1479.0
13.7382 3519.0
13.805 4974.0
13.8719 1924.0
13.9387 661.0
14.0055 660.0
14.0724 877.0
14.1392 1145.0
14.2061 1053.0
14.2729 1133.0
14.3398 789.0
14.4066 540.0
14.4735 422.0
14.5403 432.0
14.6071 395.0
14.674 402.0
14.7408 355.0
14.8077 335.0
14.8745 346.0
14.9414 308.0
15.0082 346.0
15.0751 331.0
15.1419 332.0
15.2088 336.0
15.2756 323.0
15.3424 367.0
15.4093 322.0
15.4761 385.0
15.543 424.0
15.6098 767.0
15.6767 1631.0
15.7435 1697.0
15.8104 755.0
15.8772 497.0
15.944 406.0
16.0109 335.0
16.0777 394.0
16.1446 429.0
16.2114 475.0
16.2783 558.0
16.3451 770.0
16.412 793.0
16.4788 533.0
16.5457 380.0
16.6125 384.0
16.6793 462.0
16.7462 456.0
16.813 466.0
16.8799 346.0
16.9467 287.0
17.0136 290.0
17.0804 288.0
17.1473 314.0
17.2141 291.0
17.2809 329.0
17.3478 332.0
17.4146 338.0
17.4815 361.0
17.5483 334.0
17.6152 404.0
17.682 477.0
17.7489 455.0
17.8157 459.0
17.8826 564.0
17.9494 976.0
18.0162 2349.0
18.0831 5742.0
18.1499 6412.0
18.2168 3314.0
18.2836 1837.0
18.3505 1485.0
18.4173 1337.0
18.4842 1434.0
18.551 1153.0
18.6179 545.0
18.6847 394.0
18.7515 365.0
18.8184 368.0
18.8852 389.0
18.9521 495.0
19.0189 818.0
19.0858 1456.0
19.1526 1044.0
19.2195 686.0
19.2863 552.0
19.3531 434.0
19.42 386.0
19.4868 447.0
19.5537 502.0
19.6205 809.0
19.6874 1340.0
19.7542 1791.0
19.8211 1792.0
19.8879 946.0
19.9548 505.0
20.0216 425.0
20.0884 463.0
20.1553 430.0
20.2221 396.0
20.289 457.0
20.3558 492.0
20.4227 532.0
20.4895 612.0
20.5564 930.0
20.6232 1813.0
20.69 2106.0
20.7569 1179.0
20.8237 806.0
20.8906 609.0
20.9574 598.0
21.0243 734.0
21.0911 1270.0
21.158 2064.0
21.2248 1671.0
21.2917 1105.0
21.3585 1167.0
21.4253 1569.0
21.4922 1934.0
21.559 1867.0
21.6259 1185.0
21.6927 1005.0
21.7596 1290.0
21.8264 1724.0
21.8933 1654.0
21.9601 2184.0
22.0269 3026.0
22.0938 3042.0
22.1606 2890.0
22.2275 2159.0
22.2943 1359.0
22.3612 925.0
22.428 803.0
22.4949 776.0
22.5617 823.0
22.6286 1265.0
22.6954 2218.0
22.7622 2757.0
22.8291 1731.0
22.8959 893.0
22.9628 731.0
23.0296 644.0
23.0965 553.0
23.1633 556.0
23.2302 670.0
23.297 807.0
23.3639 1268.0
23.4307 1552.0
23.4975 1359.0
23.5644 997.0
23.6312 740.0
23.6981 670.0
23.7649 595.0
23.8318 490.0
23.8986 509.0
23.9655 502.0
24.0323 644.0
24.0991 712.0
24.166 928.0
24.2328 1100.0
24.2997 774.0
24.3665 615.0
24.4334 455.0
24.5002 453.0
24.5671 396.0
24.6339 413.0
24.7008 447.0
24.7676 456.0
24.8344 573.0
24.9013 719.0
24.9681 1198.0
25.035 1365.0
25.1018 1199.0
25.1687 881.0
25.2355 795.0
25.3024 759.0
25.3692 769.0
25.436 783.0
25.5029 848.0
25.5697 689.0
25.6366 622.0
25.7034 607.0
25.7703 668.0
25.8371 663.0
25.904 776.0
25.9708 861.0
26.0377 787.0
26.1045 726.0
26.1713 512.0
26.2382 547.0
26.305 601.0
26.3719 662.0
26.4387 1212.0
26.5056 2365.0
26.5724 2715.0
26.6393 2485.0
26.7061 2721.0
26.773 2557.0
26.8398 1867.0
26.9066 1355.0
26.9735 1059.0
27.0403 987.0
27.1072 996.0
27.174 1035.0
27.2409 1852.0
27.3077 3261.0
27.3746 4649.0
27.4414 6426.0
27.5082 6402.0
27.5751 3988.0
27.6419 2683.0
27.7088 2134.0
27.7756 1841.0
27.8425 1330.0
27.9093 847.0
27.9762 701.0
28.043 600.0
28.1099 837.0
28.1767 1129.0
28.2435 917.0
28.3104 625.0
28.3772 560.0
28.4441 582.0
28.5109 574.0
28.5778 647.0
28.6446 772.0
28.7115 857.0
28.7783 1009.0
28.8451 1072.0
28.912 967.0
28.9788 785.0
29.0457 706.0
29.1125 1028.0
29.1794 2259.0
29.2462 4560.0
29.3131 4297.0
29.3799 2454.0
29.4468 1403.0
29.5136 1115.0
29.5804 970.0
29.6473 836.0
29.7141 844.0
29.781 1259.0
29.8478 2345.0
29.9147 3860.0
29.9815 3907.0
30.0484 3050.0
30.1152 1987.0
30.182 1753.0
30.2489 1981.0
30.3157 1872.0
30.3826 1630.0
30.4494 1320.0
30.5163 1041.0
30.5831 815.0
30.65 786.0
30.7168 892.0
30.7837 1218.0
30.8505 1782.0
30.9173 2580.0
30.9842 3147.0
31.051 2693.0
31.1179 1804.0
31.1847 1187.0
31.2516 869.0
31.3184 755.0
31.3853 708.0
31.4521 582.0
31.519 566.0
31.5858 623.0
31.6526 893.0
31.7195 862.0
31.7863 653.0
31.8532 520.0
31.92 567.0
31.9869 531.0
32.0537 591.0
32.1206 795.0
32.1874 1449.0
32.2542 1820.0
32.3211 1571.0
32.3879 1072.0
32.4548 829.0
32.5216 784.0
32.5885 760.0
32.6553 692.0
32.7222 592.0
32.789 571.0
32.8559 548.0
32.9227 693.0
32.9895 1070.0
33.0564 1443.0
33.1232 1381.0
33.1901 937.0
33.2569 579.0
33.3238 525.0
33.3906 509.0
33.4575 574.0
33.5243 666.0
33.5911 933.0
33.658 1182.0
33.7248 1083.0
33.7917 907.0
33.8585 727.0
33.9254 653.0
33.9922 621.0
34.0591 679.0
34.1259 731.0
34.1928 713.0
34.2596 726.0
34.3264 683.0
34.3933 646.0
34.4601 581.0
34.527 426.0
34.5938 358.0
34.6607 334.0
34.7275 353.0
34.7944 434.0
34.8612 397.0
34.928 354.0
34.9949 398.0
35.0617 400.0
35.1286 352.0
35.1954 339.0
35.2623 425.0
35.3291 533.0
35.396 680.0
35.4628 678.0
35.5297 628.0
35.5965 617.0
35.6633 710.0
35.7302 725.0
35.797 746.0
35.8639 642.0
35.9307 576.0
35.9976 578.0
36.0644 789.0
36.1313 941.0
36.1981 909.0
36.265 787.0
36.3318 707.0
36.3986 597.0
36.4655 582.0
36.5323 548.0
36.5992 688.0
36.666 888.0
36.7329 1048.0
36.7997 1117.0
36.8666 1045.0
36.9334 846.0
37.0002 639.0
37.0671 626.0
37.1339 602.0
37.2008 553.0
37.2676 536.0
37.3345 426.0
37.4013 368.0
37.4682 431.0
37.535 506.0
37.6019 543.0
37.6687 604.0
37.7355 534.0
37.8024 467.0
37.8692 407.0
37.9361 373.0
38.0029 384.0
38.0698 326.0
38.1366 355.0
38.2035 389.0
38.2703 476.0
38.3371 466.0
38.404 476.0
38.4708 392.0
38.5377 422.0
38.6045 470.0
38.6714 419.0
38.7382 401.0
38.8051 388.0
38.8719 408.0
38.9388 426.0
39.0056 470.0
39.0724 472.0
39.1393 422.0
39.2061 385.0
39.273 415.0
39.3398 447.0
39.4067 450.0
39.4735 487.0
39.5404 461.0
39.6072 417.0
39.6741 413.0
39.7409 415.0
39.8077 410.0
39.8746 454.0
39.9414 542.0
40.0083 720.0
40.0751 822.0
40.142 762.0
40.2088 763.0
40.2757 659.0
40.3425 516.0
40.4093 448.0
40.4762 420.0
40.543 361.0
40.6099 396.0
40.6767 403.0
40.7436 400.0
40.8104 458.0
40.8773 460.0
40.9441 472.0
41.011 435.0
41.0778 425.0
41.1446 410.0
41.2115 328.0
41.2783 373.0
41.3452 333.0
41.412 340.0
41.4789 348.0
41.5457 318.0
41.6126 369.0
41.6794 353.0
41.7462 401.0
41.8131 415.0
41.8799 494.0
41.9468 553.0
42.0136 564.0
42.0805 509.0
42.1473 432.0
42.2142 404.0
42.281 478.0
42.3479 479.0
42.4147 533.0
42.4815 524.0
42.5484 531.0
42.6152 509.0
42.6821 506.0
42.7489 456.0
42.8158 363.0
42.8826 340.0
42.9495 332.0
43.0163 323.0
43.0831 306.0
43.15 320.0
43.2168 335.0
43.2837 333.0
43.3505 334.0
43.4174 325.0
43.4842 336.0
43.5511 381.0
43.6179 430.0
43.6848 497.0
43.7516 549.0
43.8184 576.0
43.8853 584.0
43.9521 485.0
44.019 466.0
44.0858 425.0
44.1527 380.0
44.2195 396.0
44.2864 423.0
44.3532 431.0
44.4201 462.0
44.4869 463.0
44.5537 394.0
44.6206 414.0
44.6874 413.0
44.7543 429.0
44.8211 446.0
44.888 517.0
44.9548 522.0
45.0217 458.0
45.0885 431.0
45.1553 380.0
45.2222 413.0
45.289 385.0
45.3559 352.0
45.4227 386.0
45.4896 378.0
45.5564 409.0
45.6233 463.0
45.6901 525.0
45.757 582.0
45.8238 553.0
45.8906 548.0
45.9575 507.0
46.0243 429.0
46.0912 400.0
46.158 470.0
46.2249 528.0
46.2917 560.0
46.3586 548.0
46.4254 552.0
46.4922 496.0
46.5591 462.0
46.6259 485.0
46.6928 450.0
46.7596 458.0
46.8265 427.0
46.8933 453.0
46.9602 382.0
47.027 404.0
47.0939 347.0
47.1607 345.0
47.2275 310.0
47.2944 348.0
47.3612 332.0
47.4281 319.0
47.4949 381.0
47.5618 349.0
47.6286 384.0
47.6955 419.0
47.7623 513.0
47.8291 533.0
47.896 596.0
47.9628 636.0
48.0297 672.0
48.0965 604.0
48.1634 535.0
48.2302 487.0
48.2971 431.0
48.3639 446.0
48.4308 414.0
48.4976 378.0
48.5644 380.0
48.6313 381.0
48.6981 423.0
48.765 479.0
48.8318 570.0
48.8987 572.0
48.9655 576.0
49.0324 569.0
49.0992 610.0
49.1661 552.0
49.2329 528.0
49.2997 506.0
49.3666 520.0
49.4334 503.0
49.5003 467.0
49.5671 497.0
49.634 491.0
49.7008 439.0
49.7677 410.0
49.8345 430.0
49.9013 376.0
49.9682 364.0
50.035 369.0
50.1019 346.0
50.1687 367.0
50.2356 367.0
50.3024 371.0
50.3693 361.0
50.4361 384.0
50.503 313.0
50.5698 350.0
50.6366 348.0
50.7035 398.0
50.7703 363.0
50.8372 357.0
50.904 373.0
50.9709 430.0
51.0377 482.0
51.1046 549.0
51.1714 494.0
51.2382 458.0
51.3051 447.0
51.3719 442.0
51.4388 427.0
51.5056 440.0
51.5725 395.0
51.6393 350.0
51.7062 347.0
51.773 393.0
51.8399 385.0
51.9067 429.0
51.9735 417.0
52.0404 470.0
52.1072 481.0
52.1741 485.0
52.2409 485.0
52.3078 425.0
52.3746 451.0
52.4415 420.0
52.5083 392.0
52.5751 422.0
52.642 394.0
52.7088 385.0
52.7757 403.0
52.8425 395.0
52.9094 402.0
52.9762 427.0
53.0431 447.0
53.1099 489.0
53.1768 433.0
53.2436 393.0
53.3104 388.0
53.3773 381.0
53.4441 333.0
53.511 354.0
53.5778 402.0
53.6447 448.0
53.7115 455.0
53.7784 453.0
53.8452 443.0
53.9121 416.0
53.9789 501.0
54.0457 541.0
54.1126 498.0
54.1794 466.0
54.2463 463.0
54.3131 416.0
54.38 386.0
54.4468 355.0
54.5137 355.0
54.5805 346.0
54.6473 320.0
54.7142 382.0
54.781 438.0
54.8479 520.0
54.9147 531.0
54.9816 589.0
55.0484 601.0
55.1153 567.0
55.1821 574.0
55.249 525.0
55.3158 564.0
55.3826 502.0
55.4495 506.0
55.5163 528.0
55.5832 570.0
55.65 565.0
55.7169 571.0
55.7837 568.0
55.8506 555.0
55.9174 574.0
55.9842 521.0
56.0511 502.0
56.1179 447.0
56.1848 470.0
56.2516 534.0
56.3185 614.0
56.3853 571.0
56.4522 579.0
56.519 579.0
56.5859 517.0
56.6527 478.0
56.7195 394.0
56.7864 406.0
56.8532 382.0
56.9201 401.0
56.9869 415.0
57.0538 435.0
57.1206 424.0
57.1875 414.0
57.2543 371.0
57.3212 402.0
57.388 407.0
57.4548 414.0
57.5217 443.0
57.5885 409.0
57.6554 444.0
57.7222 440.0
57.7891 466.0
57.8559 431.0
57.9228 466.0
57.9896 471.0
58.0564 480.0
58.1233 450.0
58.1901 420.0
58.257 444.0
58.3238 402.0
58.3907 400.0
58.4575 389.0
58.5244 411.0
58.5912 367.0
58.6581 394.0
58.7249 425.0
58.7917 363.0
58.8586 331.0
58.9254 350.0
58.9923 367.0
59.0591 354.0
59.126 322.0
59.1928 318.0
59.2597 346.0
59.3265 350.0
59.3933 367.0
59.4602 378.0
59.527 366.0
59.5939 445.0
59.6607 445.0
59.7276 372.0
59.7944 375.0
59.8613 361.0
59.9281 346.0
59.995 368.0
60.0618 383.0
60.1286 344.0
60.1955 331.0
60.2623 394.0
60.3292 366.0
60.396 442.0
60.4629 398.0
60.5297 444.0
60.5966 445.0
60.6634 526.0
60.7302 454.0
60.7971 472.0
60.8639 432.0
60.9308 425.0
60.9976 402.0
61.0645 384.0
61.1313 365.0
61.1982 329.0
61.265 355.0
61.3319 332.0
61.3987 322.0
61.4655 335.0
61.5324 323.0
61.5992 346.0
61.6661 302.0
61.7329 303.0
61.7998 326.0
61.8666 276.0
61.9335 314.0
62.0003 304.0
62.0672 316.0
62.134 304.0
62.2008 357.0
62.2677 311.0
62.3345 318.0
62.4014 337.0
62.4682 314.0
62.5351 293.0
62.6019 301.0
62.6688 344.0
62.7356 351.0
62.8024 365.0
62.8693 377.0
62.9361 348.0
63.003 348.0
63.0698 353.0
63.1367 340.0
63.2035 335.0
63.2704 307.0
63.3372 272.0
63.4041 292.0
63.4709 316.0
63.5377 328.0
63.6046 279.0
63.6714 294.0
63.7383 297.0
63.8051 310.0
63.872 344.0
63.9388 380.0
64.0057 396.0
64.0725 384.0
64.1393 345.0
64.2062 365.0
64.273 373.0
64.3399 319.0
64.4067 339.0
64.4736 314.0
64.5404 314.0
64.6073 346.0
64.6741 330.0
64.741 329.0
64.8078 320.0
64.8746 346.0
64.9415 362.0
65.0083 367.0
65.0752 349.0
65.142 355.0
65.2089 342.0
65.2757 318.0
65.3426 323.0
65.4094 357.0
65.4762 386.0
65.5431 385.0
65.6099 393.0
65.6768 407.0
65.7436 347.0
65.8105 394.0
65.8773 354.0
65.9442 375.0
66.011 341.0
66.0779 345.0
66.1447 351.0
66.2115 402.0
66.2784 362.0
66.3452 391.0
66.4121 360.0
66.4789 378.0
66.5458 337.0
66.6126 347.0
66.6795 316.0
66.7463 324.0
66.8132 331.0
66.88 393.0
66.9468 338.0
67.0137 365.0
67.0805 354.0
67.1474 355.0
67.2142 410.0
67.2811 432.0
67.3479 478.0
67.4148 486.0
67.4816 438.0
67.5484 423.0
67.6153 471.0
67.6821 479.0
67.749 393.0
67.8158 436.0
67.8827 383.0
67.9495 357.0
68.0164 362.0
68.0832 394.0
68.1501 354.0
68.2169 306.0
68.2837 347.0
68.3506 332.0
68.4174 351.0
68.4843 350.0
68.5511 353.0
68.618 358.0
68.6848 332.0
68.7517 362.0
68.8185 333.0
68.8853 350.0
68.9522 326.0
69.019 362.0
69.0859 361.0
69.1527 363.0
69.2196 352.0
69.2864 313.0
69.3533 309.0
69.4201 315.0
69.487 309.0
69.5538 289.0
69.6206 295.0
69.6875 286.0
69.7543 297.0
69.8212 316.0
69.888 260.0
69.9549 351.0
70.0217 313.0
70.0886 298.0
70.1554 350.0
70.2222 323.0
70.2891 356.0
70.3559 349.0
70.4228 393.0
70.4896 334.0
70.5565 364.0
70.6233 376.0
70.6902 376.0
70.757 417.0
70.8239 392.0
70.8907 428.0
70.9575 350.0
71.0244 367.0
71.0912 356.0
71.1581 360.0
71.2249 336.0
71.2918 375.0
71.3586 331.0
71.4255 345.0
71.4923 334.0
71.5592 372.0
71.626 366.0
71.6928 337.0
71.7597 333.0
71.8265 332.0
71.8934 323.0
71.9602 306.0
72.0271 328.0
72.0939 324.0
72.1608 299.0
72.2276 310.0
72.2944 319.0
72.3613 273.0
72.4281 286.0
72.495 313.0
72.5618 295.0
72.6287 317.0
72.6955 276.0
72.7624 306.0
72.8292 290.0
72.8961 275.0
72.9629 258.0
73.0297 294.0
73.0966 295.0
73.1634 291.0
73.2303 266.0
73.2971 280.0
73.364 283.0
73.4308 260.0
73.4977 283.0
73.5645 255.0
73.6313 256.0
73.6982 280.0
73.765 269.0
73.8319 314.0
73.8987 315.0
73.9656 271.0
74.0324 316.0
74.0993 303.0
74.1661 313.0
74.233 255.0
74.2998 290.0
74.3666 334.0
74.4335 248.0
74.5003 308.0
74.5672 286.0
74.634 314.0
74.7009 316.0
74.7677 302.0
74.8346 326.0
74.9014 328.0
74.9683 333.0
75.0351 302.0
75.1019 286.0
75.1688 309.0
75.2356 279.0
75.3025 267.0
75.3693 286.0
75.4362 282.0
75.503 306.0
75.5699 326.0
75.6367 306.0
75.7035 309.0
75.7704 280.0
75.8372 365.0
75.9041 311.0
75.9709 309.0
76.0378 347.0
76.1046 315.0
76.1715 347.0
76.2383 305.0
76.3052 315.0
76.372 307.0
76.4388 316.0
76.5057 335.0
76.5725 266.0
76.6394 268.0
76.7062 266.0
76.7731 247.0
76.8399 251.0
76.9068 280.0
76.9736 282.0
77.0404 293.0
77.1073 253.0
77.1741 302.0
77.241 277.0
77.3078 286.0
77.3747 294.0
77.4415 269.0
77.5084 306.0
77.5752 280.0
77.6421 282.0
77.7089 282.0
77.7757 328.0
77.8426 334.0
77.9094 356.0
77.9763 334.0
78.0431 318.0
78.11 307.0
78.1768 297.0
78.2437 295.0
78.3105 289.0
78.3773 270.0
78.4442 260.0
78.511 253.0
78.5779 258.0
78.6447 272.0
78.7116 246.0
78.7784 290.0
78.8453 271.0
78.9121 268.0
78.979 257.0
79.0458 248.0
79.1126 245.0
79.1795 269.0
79.2463 269.0
79.3132 243.0
79.38 228.0
79.4469 238.0
79.5137 224.0
79.5806 256.0
79.6474 236.0
79.7143 213.0
79.7811 233.0
79.8479 263.0
79.9148 257.0
79.9816 280.0
80.0485 276.0
80.1153 267.0
80.1822 284.0
80.249 236.0
80.3159 221.0
80.3827 226.0
80.4495 242.0
80.5164 221.0
80.5832 225.0
80.6501 264.0
80.7169 214.0
80.7838 207.0
80.8506 231.0
80.9175 222.0
80.9843 238.0
81.0512 237.0
81.118 261.0
81.1848 273.0
81.2517 225.0
81.3185 228.0
81.3854 210.0
81.4522 228.0
81.5191 221.0
81.5859 226.0
81.6528 211.0
81.7196 232.0
81.7864 200.0
81.8533 226.0
81.9201 239.0
81.987 223.0
82.0538 247.0
82.1207 217.0
82.1875 224.0
82.2544 261.0
82.3212 213.0
82.3881 237.0
82.4549 246.0
82.5217 212.0
82.5886 185.0
82.6554 214.0
82.7223 209.0
82.7891 178.0
82.856 236.0
82.9228 194.0
82.9897 214.0
83.0565 216.0
83.1233 214.0
83.1902 209.0
83.257 205.0
83.3239 216.0
83.3907 204.0
83.4576 227.0
83.5244 224.0
83.5913 229.0
83.6581 258.0
83.725 222.0
83.7918 201.0
83.8586 190.0
83.9255 210.0
83.9923 191.0
84.0592 210.0
84.126 200.0
84.1929 203.0
84.2597 188.0
84.3266 220.0
84.3934 174.0
84.4603 184.0
84.5271 179.0
84.5939 198.0
84.6608 205.0
84.7276 178.0
84.7945 207.0
84.8613 186.0
84.9282 220.0
84.995 201.0
85.0619 230.0
85.1287 175.0
85.1955 236.0
85.2624 179.0
85.3292 188.0
85.3961 211.0
85.4629 216.0
85.5298 209.0
85.5966 212.0
85.6635 222.0
85.7303 220.0
85.7972 191.0
85.864 183.0
85.9308 222.0
85.9977 209.0
86.0645 224.0
86.1314 233.0
86.1982 230.0
86.2651 222.0
86.3319 207.0
86.3988 221.0
86.4656 233.0
86.5324 174.0
86.5993 237.0
86.6661 203.0
86.733 194.0
86.7998 198.0
86.8667 195.0
86.9335 228.0
87.0004 198.0
87.0672 200.0
87.1341 189.0
87.2009 212.0
87.2677 169.0
87.3346 189.0
87.4014 191.0
87.4683 148.0
87.5351 161.0
87.602 193.0
87.6688 174.0
87.7357 172.0
87.8025 208.0
87.8693 188.0
87.9362 166.0
88.003 185.0
88.0699 166.0
88.1367 163.0
88.2036 163.0
88.2704 174.0
88.3373 169.0
88.4041 191.0
88.471 188.0
88.5378 207.0
88.6046 186.0
88.6715 178.0
88.7383 184.0
88.8052 181.0
88.872 173.0
88.9389 198.0
89.0057 186.0
89.0726 181.0
89.1394 199.0
89.2063 174.0
89.2731 129.0
89.3399 173.0
89.4068 160.0
89.4736 181.0
89.5405 166.0
89.6073 164.0
89.6742 152.0
89.741 194.0
89.8079 146.0
89.8747 147.0
89.9415 178.0