File: code/XRD_Analysis/External Sources/Fabian/SAPO-34/15022024_SAPO-34_SiAl_030_calc.xy
4.98146 1085.0
5.0483 975.0
5.11515 1022.0
5.18199 1009.0
5.24884 1043.0
5.31568 1066.0
5.38253 946.0
5.44937 941.0
5.51622 1005.0
5.58306 948.0
5.64991 894.0
5.71675 886.0
5.7836 852.0
5.85044 864.0
5.91729 817.0
5.98413 857.0
6.05098 825.0
6.11782 841.0
6.18467 840.0
6.25151 850.0
6.31836 745.0
6.3852 808.0
6.45205 884.0
6.51889 761.0
6.58574 817.0
6.65258 791.0
6.71943 761.0
6.78627 743.0
6.85312 741.0
6.91996 737.0
6.98681 728.0
7.05365 691.0
7.1205 753.0
7.18734 729.0
7.25419 736.0
7.32103 710.0
7.38788 728.0
7.45472 725.0
7.52157 683.0
7.58841 691.0
7.65526 736.0
7.7221 707.0
7.78895 686.0
7.85579 669.0
7.92264 698.0
7.98948 650.0
8.05633 652.0
8.12317 623.0
8.19002 638.0
8.25686 654.0
8.32371 635.0
8.39055 690.0
8.4574 617.0
8.52424 609.0
8.59109 621.0
8.65793 635.0
8.72478 648.0
8.79162 661.0
8.85847 708.0
8.92532 643.0
8.99216 657.0
9.05901 648.0
9.12585 724.0
9.1927 797.0
9.25954 860.0
9.32639 1175.0
9.39323 1817.0
9.46008 3229.0
9.52692 6197.0
9.59377 11006.0
9.66061 8979.0
9.72746 4076.0
9.7943 2126.0
9.86115 1427.0
9.92799 1257.0
9.99484 1173.0
10.0617 1099.0
10.1285 1048.0
10.1954 979.0
10.2622 807.0
10.3291 773.0
10.3959 729.0
10.4628 785.0
10.5296 799.0
10.5964 784.0
10.6633 814.0
10.7301 865.0
10.797 740.0
10.8638 785.0
10.9307 651.0
10.9975 705.0
11.0644 588.0
11.1312 642.0
11.198 567.0
11.2649 580.0
11.3317 568.0
11.3986 609.0
11.4654 589.0
11.5323 614.0
11.5991 591.0
11.666 588.0
11.7328 573.0
11.7997 606.0
11.8665 598.0
11.9333 568.0
12.0002 559.0
12.067 614.0
12.1339 555.0
12.2007 561.0
12.2676 578.0
12.3344 626.0
12.4013 602.0
12.4681 588.0
12.5349 588.0
12.6018 604.0
12.6686 674.0
12.7355 738.0
12.8023 840.0
12.8692 1123.0
12.936 1856.0
13.0029 2710.0
13.0697 2845.0
13.1366 1804.0
13.2034 1266.0
13.2702 943.0
13.3371 743.0
13.4039 708.0
13.4708 712.0
13.5376 667.0
13.6045 744.0
13.6713 677.0
13.7382 594.0
13.805 539.0
13.8719 581.0
13.9387 573.0
14.0055 643.0
14.0724 747.0
14.1392 698.0
14.2061 605.0
14.2729 537.0
14.3398 544.0
14.4066 505.0
14.4735 552.0
14.5403 536.0
14.6071 490.0
14.674 511.0
14.7408 531.0
14.8077 483.0
14.8745 509.0
14.9414 526.0
15.0082 520.0
15.0751 512.0
15.1419 504.0
15.2088 555.0
15.2756 586.0
15.3424 550.0
15.4093 589.0
15.4761 764.0
15.543 775.0
15.6098 713.0
15.6767 675.0
15.7435 688.0
15.8104 645.0
15.8772 602.0
15.944 790.0
16.0109 823.0
16.0777 1224.0
16.1446 1723.0
16.2114 2089.0
16.2783 1610.0
16.3451 989.0
16.412 792.0
16.4788 730.0
16.5457 703.0
16.6125 723.0
16.6793 800.0
16.7462 821.0
16.813 956.0
16.8799 1095.0
16.9467 1127.0
17.0136 1119.0
17.0804 1119.0
17.1473 1104.0
17.2141 1023.0
17.2809 1012.0
17.3478 965.0
17.4146 929.0
17.4815 876.0
17.5483 871.0
17.6152 814.0
17.682 818.0
17.7489 896.0
17.8157 1236.0
17.8826 1437.0
17.9494 1395.0
18.0162 1165.0
18.0831 967.0
18.1499 787.0
18.2168 774.0
18.2836 691.0
18.3505 736.0
18.4173 743.0
18.4842 755.0
18.551 745.0
18.6179 726.0
18.6847 722.0
18.7515 802.0
18.8184 776.0
18.8852 771.0
18.9521 787.0
19.0189 889.0
19.0858 917.0
19.1526 1149.0
19.2195 1234.0
19.2863 1214.0
19.3531 1157.0
19.42 1075.0
19.4868 991.0
19.5537 987.0
19.6205 1047.0
19.6874 1040.0
19.7542 1029.0
19.8211 1026.0
19.8879 1070.0
19.9548 998.0
20.0216 1031.0
20.0884 1073.0
20.1553 1078.0
20.2221 995.0
20.289 1016.0
20.3558 1053.0
20.4227 1137.0
20.4895 1131.0
20.5564 1286.0
20.6232 1549.0
20.69 2437.0
20.7569 3612.0
20.8237 4628.0
20.8906 3949.0
20.9574 2575.0
21.0243 2018.0
21.0911 1716.0
21.158 1548.0
21.2248 1423.0
21.2917 1335.0
21.3585 1257.0
21.4253 1375.0
21.4922 1401.0
21.559 1234.0
21.6259 1082.0
21.6927 1011.0
21.7596 904.0
21.8264 823.0
21.8933 864.0
21.9601 841.0
22.0269 836.0
22.0938 877.0
22.1606 959.0
22.2275 978.0
22.2943 910.0
22.3612 962.0
22.428 894.0
22.4949 974.0
22.5617 967.0
22.6286 1034.0
22.6954 1015.0
22.7622 1001.0
22.8291 963.0
22.8959 946.0
22.9628 957.0
23.0296 1006.0
23.0965 1089.0
23.1633 1214.0
23.2302 1468.0
23.297 1691.0
23.3639 1502.0
23.4307 1153.0
23.4975 1129.0
23.5644 1112.0
23.6312 1115.0
23.6981 1159.0
23.7649 1172.0
23.8318 1253.0
23.8986 1381.0
23.9655 1507.0
24.0323 1457.0
24.0991 1548.0
24.166 1595.0
24.2328 1489.0
24.2997 1443.0
24.3665 1346.0
24.4334 1231.0
24.5002 1291.0
24.5671 1176.0
24.6339 1136.0
24.7008 1105.0
24.7676 1113.0
24.8344 1272.0
24.9013 1204.0
24.9681 1304.0
25.035 1636.0
25.1018 1881.0
25.1687 1857.0
25.2355 1631.0
25.3024 1441.0
25.3692 1312.0
25.436 1325.0
25.5029 1165.0
25.5697 1218.0
25.6366 1173.0
25.7034 1225.0
25.7703 1274.0
25.8371 1276.0
25.904 1363.0
25.9708 1510.0
26.0377 1638.0
26.1045 1955.0
26.1713 2398.0
26.2382 2443.0
26.305 2000.0
26.3719 1738.0
26.4387 1850.0
26.5056 1745.0
26.5724 1598.0
26.6393 1369.0
26.7061 1303.0
26.773 1274.0
26.8398 1221.0
26.9066 1203.0
26.9735 1118.0
27.0403 1137.0
27.1072 1073.0
27.174 1172.0
27.2409 1098.0
27.3077 1097.0
27.3746 1045.0
27.4414 1060.0
27.5082 1086.0
27.5751 1141.0
27.6419 1116.0
27.7088 1126.0
27.7756 1178.0
27.8425 1307.0
27.9093 1354.0
27.9762 1365.0
28.043 1354.0
28.1099 1254.0
28.1767 1268.0
28.2435 1277.0
28.3104 1369.0
28.3772 1435.0
28.4441 1409.0
28.5109 1324.0
28.5778 1160.0
28.6446 1132.0
28.7115 1126.0
28.7783 1204.0
28.8451 1190.0
28.912 1174.0
28.9788 1148.0
29.0457 1198.0
29.1125 1164.0
29.1794 1110.0
29.2462 1098.0
29.3131 1113.0
29.3799 1100.0
29.4468 1097.0
29.5136 1062.0
29.5804 1119.0
29.6473 1140.0
29.7141 1125.0
29.781 1247.0
29.8478 1273.0
29.9147 1267.0
29.9815 1274.0
30.0484 1296.0
30.1152 1336.0
30.182 1404.0
30.2489 1486.0
30.3157 1455.0
30.3826 1591.0
30.4494 1638.0
30.5163 1660.0
30.5831 1552.0
30.65 1735.0
30.7168 1853.0
30.7837 2097.0
30.8505 2657.0
30.9173 3298.0
30.9842 3492.0
31.051 3110.0
31.1179 2703.0
31.1847 2612.0
31.2516 2781.0
31.3184 2855.0
31.3853 2752.0
31.4521 2380.0
31.519 1956.0
31.5858 1913.0
31.6526 1747.0
31.7195 1732.0
31.7863 1620.0
31.8532 1668.0
31.92 1603.0
31.9869 1497.0
32.0537 1406.0
32.1206 1367.0
32.1874 1260.0
32.2542 1337.0
32.3211 1328.0
32.3879 1333.0
32.4548 1307.0
32.5216 1275.0
32.5885 1277.0
32.6553 1288.0
32.7222 1231.0
32.789 1187.0
32.8559 1111.0
32.9227 1132.0
32.9895 1149.0
33.0564 1079.0
33.1232 1051.0
33.1901 1083.0
33.2569 1008.0
33.3238 960.0
33.3906 892.0
33.4575 900.0
33.5243 935.0
33.5911 883.0
33.658 924.0
33.7248 868.0
33.7917 914.0
33.8585 899.0
33.9254 915.0
33.9922 845.0
34.0591 852.0
34.1259 876.0
34.1928 786.0
34.2596 786.0
34.3264 830.0
34.3933 792.0
34.4601 820.0
34.527 801.0
34.5938 786.0
34.6607 801.0
34.7275 786.0
34.7944 867.0
34.8612 1003.0
34.928 918.0
34.9949 896.0
35.0617 860.0
35.1286 821.0
35.1954 704.0
35.2623 729.0
35.3291 684.0
35.396 739.0
35.4628 700.0
35.5297 634.0
35.5965 706.0
35.6633 661.0
35.7302 661.0
35.797 627.0
35.8639 654.0
35.9307 614.0
35.9976 641.0
36.0644 630.0
36.1313 645.0
36.1981 693.0
36.265 748.0
36.3318 739.0
36.3986 740.0
36.4655 685.0
36.5323 653.0
36.5992 618.0
36.666 631.0
36.7329 627.0
36.7997 588.0
36.8666 575.0
36.9334 558.0
37.0002 597.0
37.0671 600.0
37.1339 583.0
37.2008 541.0
37.2676 509.0
37.3345 539.0
37.4013 513.0
37.4682 521.0
37.535 488.0
37.6019 522.0
37.6687 487.0
37.7355 532.0
37.8024 579.0
37.8692 531.0
37.9361 503.0
38.0029 544.0
38.0698 470.0
38.1366 480.0
38.2035 488.0
38.2703 536.0
38.3371 519.0
38.404 509.0
38.4708 473.0
38.5377 503.0
38.6045 482.0
38.6714 485.0
38.7382 497.0
38.8051 454.0
38.8719 540.0
38.9388 524.0
39.0056 575.0
39.0724 544.0
39.1393 511.0
39.2061 494.0
39.273 543.0
39.3398 594.0
39.4067 521.0
39.4735 561.0
39.5404 524.0
39.6072 578.0
39.6741 573.0
39.7409 590.0
39.8077 586.0
39.8746 561.0
39.9414 563.0
40.0083 543.0
40.0751 547.0
40.142 620.0
40.2088 588.0
40.2757 625.0
40.3425 564.0
40.4093 571.0
40.4762 544.0
40.543 543.0
40.6099 575.0
40.6767 503.0
40.7436 568.0
40.8104 513.0
40.8773 512.0
40.9441 509.0
41.011 558.0
41.0778 520.0
41.1446 522.0
41.2115 497.0
41.2783 543.0
41.3452 507.0
41.412 495.0
41.4789 567.0
41.5457 540.0
41.6126 497.0
41.6794 528.0
41.7462 531.0
41.8131 527.0
41.8799 533.0
41.9468 517.0
42.0136 488.0
42.0805 506.0
42.1473 506.0
42.2142 518.0
42.281 557.0
42.3479 527.0
42.4147 533.0
42.4815 504.0
42.5484 519.0
42.6152 519.0
42.6821 544.0
42.7489 502.0
42.8158 504.0
42.8826 578.0
42.9495 540.0
43.0163 541.0
43.0831 622.0
43.15 627.0
43.2168 571.0
43.2837 616.0
43.3505 563.0
43.4174 599.0
43.4842 576.0
43.5511 594.0
43.6179 584.0
43.6848 588.0
43.7516 542.0
43.8184 576.0
43.8853 578.0
43.9521 553.0
44.019 529.0
44.0858 545.0
44.1527 482.0
44.2195 541.0
44.2864 478.0
44.3532 491.0
44.4201 516.0
44.4869 514.0
44.5537 520.0
44.6206 502.0
44.6874 490.0
44.7543 513.0
44.8211 512.0
44.888 497.0
44.9548 501.0
45.0217 516.0
45.0885 482.0
45.1553 526.0
45.2222 478.0
45.289 480.0
45.3559 485.0
45.4227 469.0
45.4896 496.0
45.5564 511.0
45.6233 494.0
45.6901 507.0
45.757 487.0
45.8238 475.0
45.8906 488.0
45.9575 444.0
46.0243 472.0
46.0912 498.0
46.158 478.0
46.2249 523.0
46.2917 479.0
46.3586 478.0
46.4254 497.0
46.4922 486.0
46.5591 489.0
46.6259 465.0
46.6928 471.0
46.7596 503.0
46.8265 461.0
46.8933 459.0
46.9602 473.0
47.027 512.0
47.0939 456.0
47.1607 506.0
47.2275 523.0
47.2944 502.0
47.3612 556.0
47.4281 522.0
47.4949 549.0
47.5618 517.0
47.6286 510.0
47.6955 553.0
47.7623 502.0
47.8291 522.0
47.896 480.0
47.9628 526.0
48.0297 538.0
48.0965 579.0
48.1634 565.0
48.2302 508.0
48.2971 540.0
48.3639 587.0
48.4308 552.0
48.4976 547.0
48.5644 538.0
48.6313 510.0
48.6981 510.0
48.765 507.0
48.8318 506.0
48.8987 547.0
48.9655 493.0
49.0324 571.0
49.0992 646.0
49.1661 663.0
49.2329 689.0
49.2997 747.0
49.3666 703.0
49.4334 781.0
49.5003 683.0
49.5671 697.0
49.634 724.0
49.7008 641.0
49.7677 644.0
49.8345 664.0
49.9013 635.0
49.9682 635.0
50.035 558.0
50.1019 586.0
50.1687 580.0
50.2356 516.0
50.3024 573.0
50.3693 618.0
50.4361 561.0
50.503 560.0
50.5698 573.0
50.6366 551.0
50.7035 531.0
50.7703 565.0
50.8372 571.0
50.904 609.0
50.9709 613.0
51.0377 650.0
51.1046 662.0
51.1714 625.0
51.2382 680.0
51.3051 637.0
51.3719 644.0
51.4388 571.0
51.5056 576.0
51.5725 554.0
51.6393 583.0
51.7062 557.0
51.773 553.0
51.8399 555.0
51.9067 600.0
51.9735 586.0
52.0404 551.0
52.1072 506.0
52.1741 557.0
52.2409 551.0
52.3078 567.0
52.3746 552.0
52.4415 527.0
52.5083 535.0
52.5751 521.0
52.642 561.0
52.7088 565.0
52.7757 514.0
52.8425 581.0
52.9094 558.0
52.9762 513.0
53.0431 572.0
53.1099 520.0
53.1768 517.0
53.2436 500.0
53.3104 560.0
53.3773 542.0
53.4441 567.0
53.511 557.0
53.5778 550.0
53.6447 544.0
53.7115 576.0
53.7784 531.0
53.8452 592.0
53.9121 591.0
53.9789 581.0
54.0457 581.0
54.1126 584.0
54.1794 512.0
54.2463 519.0
54.3131 554.0
54.38 539.0
54.4468 601.0
54.5137 552.0
54.5805 609.0
54.6473 514.0
54.7142 596.0
54.781 552.0
54.8479 557.0
54.9147 589.0
54.9816 526.0
55.0484 507.0
55.1153 539.0
55.1821 513.0
55.249 509.0
55.3158 563.0
55.3826 532.0
55.4495 570.0
55.5163 525.0
55.5832 533.0
55.65 549.0
55.7169 580.0
55.7837 542.0
55.8506 544.0
55.9174 534.0
55.9842 526.0
56.0511 510.0
56.1179 541.0
56.1848 508.0
56.2516 517.0
56.3185 513.0
56.3853 511.0
56.4522 532.0
56.519 519.0
56.5859 559.0
56.6527 550.0
56.7195 544.0
56.7864 549.0
56.8532 524.0
56.9201 516.0
56.9869 516.0
57.0538 466.0
57.1206 492.0
57.1875 507.0
57.2543 433.0
57.3212 480.0
57.388 481.0
57.4548 527.0
57.5217 479.0
57.5885 442.0
57.6554 497.0
57.7222 489.0
57.7891 466.0
57.8559 438.0
57.9228 460.0
57.9896 416.0
58.0564 442.0
58.1233 451.0
58.1901 444.0
58.257 502.0
58.3238 448.0
58.3907 440.0
58.4575 410.0
58.5244 418.0
58.5912 447.0
58.6581 438.0
58.7249 480.0
58.7917 474.0
58.8586 418.0
58.9254 440.0
58.9923 431.0
59.0591 417.0
59.126 427.0
59.1928 445.0
59.2597 448.0
59.3265 428.0
59.3933 443.0
59.4602 481.0
59.527 428.0
59.5939 427.0
59.6607 451.0
59.7276 475.0
59.7944 458.0
59.8613 443.0
59.9281 462.0
59.995 465.0
60.0618 447.0
60.1286 523.0
60.1955 482.0
60.2623 481.0
60.3292 476.0
60.396 492.0
60.4629 505.0
60.5297 490.0
60.5966 477.0
60.6634 439.0
60.7302 472.0
60.7971 489.0
60.8639 455.0
60.9308 486.0
60.9976 448.0
61.0645 444.0
61.1313 425.0
61.1982 447.0
61.265 443.0
61.3319 422.0
61.3987 483.0
61.4655 467.0
61.5324 430.0
61.5992 462.0
61.6661 463.0
61.7329 461.0
61.7998 435.0
61.8666 486.0
61.9335 525.0
62.0003 478.0
62.0672 481.0
62.134 454.0
62.2008 459.0
62.2677 486.0
62.3345 429.0
62.4014 471.0
62.4682 419.0
62.5351 480.0
62.6019 474.0
62.6688 409.0
62.7356 464.0
62.8024 415.0
62.8693 441.0
62.9361 464.0
63.003 429.0
63.0698 464.0
63.1367 411.0
63.2035 448.0
63.2704 408.0
63.3372 416.0
63.4041 444.0
63.4709 431.0
63.5377 433.0
63.6046 434.0
63.6714 443.0
63.7383 415.0
63.8051 428.0
63.872 415.0
63.9388 422.0
64.0057 410.0
64.0725 402.0
64.1393 410.0
64.2062 462.0
64.273 389.0
64.3399 389.0
64.4067 409.0
64.4736 400.0
64.5404 460.0
64.6073 426.0
64.6741 456.0
64.741 441.0
64.8078 434.0
64.8746 395.0
64.9415 400.0
65.0083 440.0
65.0752 448.0
65.142 457.0
65.2089 455.0
65.2757 377.0
65.3426 442.0
65.4094 404.0
65.4762 423.0
65.5431 413.0
65.6099 454.0
65.6768 396.0
65.7436 398.0
65.8105 418.0
65.8773 418.0
65.9442 427.0
66.011 409.0
66.0779 446.0
66.1447 451.0
66.2115 448.0
66.2784 386.0
66.3452 428.0
66.4121 431.0
66.4789 458.0
66.5458 402.0
66.6126 415.0
66.6795 427.0
66.7463 449.0
66.8132 444.0
66.88 472.0
66.9468 479.0
67.0137 453.0
67.0805 481.0
67.1474 491.0
67.2142 480.0
67.2811 467.0
67.3479 460.0
67.4148 475.0
67.4816 469.0
67.5484 454.0
67.6153 442.0
67.6821 449.0
67.749 482.0
67.8158 440.0
67.8827 418.0
67.9495 440.0
68.0164 473.0
68.0832 438.0
68.1501 440.0
68.2169 387.0
68.2837 458.0
68.3506 445.0
68.4174 389.0
68.4843 429.0
68.5511 420.0
68.618 434.0
68.6848 446.0
68.7517 387.0
68.8185 394.0
68.8853 457.0
68.9522 424.0
69.019 401.0
69.0859 420.0
69.1527 416.0
69.2196 436.0
69.2864 429.0
69.3533 432.0
69.4201 447.0
69.487 426.0
69.5538 384.0
69.6206 438.0
69.6875 388.0
69.7543 419.0
69.8212 458.0
69.888 449.0
69.9549 401.0
70.0217 445.0
70.0886 478.0
70.1554 394.0
70.2222 377.0
70.2891 426.0
70.3559 397.0
70.4228 458.0
70.4896 458.0
70.5565 404.0
70.6233 463.0
70.6902 424.0
70.757 404.0
70.8239 407.0
70.8907 399.0
70.9575 438.0
71.0244 406.0
71.0912 425.0
71.1581 417.0
71.2249 403.0
71.2918 420.0
71.3586 426.0
71.4255 415.0
71.4923 427.0
71.5592 410.0
71.626 363.0
71.6928 423.0
71.7597 434.0
71.8265 409.0
71.8934 403.0
71.9602 396.0
72.0271 433.0
72.0939 404.0
72.1608 422.0
72.2276 432.0
72.2944 415.0
72.3613 410.0
72.4281 417.0
72.495 417.0
72.5618 389.0
72.6287 392.0
72.6955 375.0
72.7624 396.0
72.8292 433.0
72.8961 419.0
72.9629 387.0
73.0297 402.0
73.0966 414.0
73.1634 380.0
73.2303 419.0
73.2971 428.0
73.364 396.0
73.4308 453.0
73.4977 404.0
73.5645 393.0
73.6313 411.0
73.6982 407.0
73.765 440.0
73.8319 378.0
73.8987 326.0
73.9656 403.0
74.0324 401.0
74.0993 388.0
74.1661 319.0
74.233 409.0
74.2998 375.0
74.3666 396.0
74.4335 373.0
74.5003 398.0
74.5672 389.0
74.634 395.0
74.7009 352.0
74.7677 391.0
74.8346 409.0
74.9014 404.0
74.9683 368.0
75.0351 377.0
75.1019 384.0
75.1688 373.0
75.2356 383.0
75.3025 350.0
75.3693 365.0
75.4362 372.0
75.503 385.0
75.5699 384.0
75.6367 351.0
75.7035 381.0
75.7704 334.0
75.8372 371.0
75.9041 366.0
75.9709 351.0
76.0378 358.0
76.1046 377.0
76.1715 386.0
76.2383 368.0
76.3052 419.0
76.372 345.0
76.4388 378.0
76.5057 391.0
76.5725 365.0
76.6394 384.0
76.7062 372.0
76.7731 366.0
76.8399 352.0
76.9068 300.0
76.9736 350.0
77.0404 362.0
77.1073 337.0
77.1741 352.0
77.241 332.0
77.3078 352.0
77.3747 341.0
77.4415 352.0
77.5084 355.0
77.5752 356.0
77.6421 360.0
77.7089 363.0
77.7757 360.0
77.8426 368.0
77.9094 372.0
77.9763 338.0
78.0431 320.0
78.11 332.0
78.1768 344.0
78.2437 370.0
78.3105 349.0
78.3773 345.0
78.4442 328.0
78.511 315.0
78.5779 314.0
78.6447 293.0
78.7116 336.0
78.7784 326.0
78.8453 305.0
78.9121 320.0
78.979 349.0
79.0458 344.0
79.1126 287.0
79.1795 335.0
79.2463 288.0
79.3132 321.0
79.38 348.0
79.4469 300.0
79.5137 337.0
79.5806 349.0
79.6474 310.0
79.7143 285.0
79.7811 328.0
79.8479 305.0
79.9148 315.0
79.9816 329.0
80.0485 313.0
80.1153 316.0
80.1822 317.0
80.249 303.0
80.3159 306.0
80.3827 310.0
80.4495 345.0
80.5164 303.0
80.5832 318.0
80.6501 275.0
80.7169 319.0
80.7838 291.0
80.8506 318.0
80.9175 315.0
80.9843 331.0
81.0512 284.0
81.118 325.0
81.1848 308.0
81.2517 318.0
81.3185 304.0
81.3854 293.0
81.4522 274.0
81.5191 325.0
81.5859 288.0
81.6528 302.0
81.7196 294.0
81.7864 298.0
81.8533 324.0
81.9201 295.0
81.987 272.0
82.0538 272.0
82.1207 291.0
82.1875 270.0
82.2544 297.0
82.3212 360.0
82.3881 335.0
82.4549 321.0
82.5217 275.0
82.5886 246.0
82.6554 286.0
82.7223 276.0
82.7891 266.0
82.856 260.0
82.9228 284.0
82.9897 273.0
83.0565 283.0
83.1233 266.0
83.1902 273.0
83.257 251.0
83.3239 267.0
83.3907 254.0
83.4576 255.0
83.5244 254.0
83.5913 283.0
83.6581 262.0
83.725 255.0
83.7918 290.0
83.8586 243.0
83.9255 279.0
83.9923 283.0
84.0592 255.0
84.126 279.0
84.1929 258.0
84.2597 257.0
84.3266 289.0
84.3934 244.0
84.4603 298.0
84.5271 269.0
84.5939 257.0
84.6608 250.0
84.7276 244.0
84.7945 266.0
84.8613 268.0
84.9282 267.0
84.995 246.0
85.0619 266.0
85.1287 228.0
85.1955 252.0
85.2624 250.0
85.3292 255.0
85.3961 259.0
85.4629 270.0
85.5298 225.0
85.5966 228.0
85.6635 242.0
85.7303 269.0
85.7972 235.0
85.864 247.0
85.9308 246.0
85.9977 236.0
86.0645 226.0
86.1314 246.0
86.1982 237.0
86.2651 221.0
86.3319 239.0
86.3988 248.0
86.4656 252.0
86.5324 217.0
86.5993 252.0
86.6661 246.0
86.733 225.0
86.7998 246.0
86.8667 248.0
86.9335 232.0
87.0004 255.0
87.0672 220.0
87.1341 193.0
87.2009 197.0
87.2677 199.0
87.3346 230.0
87.4014 238.0
87.4683 220.0
87.5351 215.0
87.602 225.0
87.6688 201.0
87.7357 223.0
87.8025 197.0
87.8693 233.0
87.9362 211.0
88.003 216.0
88.0699 221.0
88.1367 216.0
88.2036 223.0
88.2704 216.0
88.3373 229.0
88.4041 219.0
88.471 226.0
88.5378 220.0
88.6046 226.0
88.6715 225.0
88.7383 244.0
88.8052 237.0
88.872 225.0
88.9389 197.0
89.0057 214.0
89.0726 220.0
89.1394 210.0
89.2063 231.0
89.2731 195.0
89.3399 241.0
89.4068 199.0
89.4736 258.0
89.5405 233.0
89.6073 206.0
89.6742 204.0
89.741 225.0
89.8079 222.0
89.8747 203.0
89.9415 207.0