File: code/XRD_Analysis/External Sources/Fabian/SAPO-34/15022024_SAPO-34_SiAl_045_calc.xy
4.98146 1045.0
5.0483 1084.0
5.11515 980.0
5.18199 1003.0
5.24884 955.0
5.31568 920.0
5.38253 984.0
5.44937 902.0
5.51622 931.0
5.58306 913.0
5.64991 902.0
5.71675 885.0
5.7836 866.0
5.85044 880.0
5.91729 817.0
5.98413 851.0
6.05098 862.0
6.11782 877.0
6.18467 870.0
6.25151 740.0
6.31836 797.0
6.3852 819.0
6.45205 752.0
6.51889 747.0
6.58574 703.0
6.65258 724.0
6.71943 812.0
6.78627 715.0
6.85312 739.0
6.91996 716.0
6.98681 744.0
7.05365 723.0
7.1205 719.0
7.18734 707.0
7.25419 729.0
7.32103 669.0
7.38788 724.0
7.45472 696.0
7.52157 674.0
7.58841 645.0
7.65526 740.0
7.7221 689.0
7.78895 663.0
7.85579 636.0
7.92264 706.0
7.98948 716.0
8.05633 643.0
8.12317 673.0
8.19002 630.0
8.25686 634.0
8.32371 612.0
8.39055 638.0
8.4574 610.0
8.52424 598.0
8.59109 654.0
8.65793 589.0
8.72478 588.0
8.79162 587.0
8.85847 610.0
8.92532 622.0
8.99216 631.0
9.05901 622.0
9.12585 659.0
9.1927 680.0
9.25954 798.0
9.32639 963.0
9.39323 1372.0
9.46008 2514.0
9.52692 4408.0
9.59377 7758.0
9.66061 8127.0
9.72746 4893.0
9.7943 2489.0
9.86115 1647.0
9.92799 1334.0
9.99484 1088.0
10.0617 988.0
10.1285 979.0
10.1954 884.0
10.2622 786.0
10.3291 776.0
10.3959 727.0
10.4628 778.0
10.5296 741.0
10.5964 696.0
10.6633 786.0
10.7301 813.0
10.797 730.0
10.8638 704.0
10.9307 677.0
10.9975 646.0
11.0644 664.0
11.1312 613.0
11.198 616.0
11.2649 571.0
11.3317 587.0
11.3986 537.0
11.4654 574.0
11.5323 591.0
11.5991 581.0
11.666 539.0
11.7328 588.0
11.7997 575.0
11.8665 504.0
11.9333 525.0
12.0002 545.0
12.067 557.0
12.1339 584.0
12.2007 552.0
12.2676 559.0
12.3344 534.0
12.4013 581.0
12.4681 582.0
12.5349 554.0
12.6018 552.0
12.6686 592.0
12.7355 618.0
12.8023 752.0
12.8692 969.0
12.936 1433.0
13.0029 2056.0
13.0697 2111.0
13.1366 1689.0
13.2034 1305.0
13.2702 900.0
13.3371 735.0
13.4039 727.0
13.4708 688.0
13.5376 669.0
13.6045 647.0
13.6713 689.0
13.7382 622.0
13.805 590.0
13.8719 516.0
13.9387 493.0
14.0055 566.0
14.0724 591.0
14.1392 632.0
14.2061 581.0
14.2729 514.0
14.3398 500.0
14.4066 471.0
14.4735 480.0
14.5403 498.0
14.6071 466.0
14.674 496.0
14.7408 500.0
14.8077 478.0
14.8745 494.0
14.9414 512.0
15.0082 491.0
15.0751 477.0
15.1419 471.0
15.2088 492.0
15.2756 488.0
15.3424 510.0
15.4093 510.0
15.4761 592.0
15.543 648.0
15.6098 661.0
15.6767 650.0
15.7435 607.0
15.8104 595.0
15.8772 636.0
15.944 621.0
16.0109 758.0
16.0777 965.0
16.1446 1305.0
16.2114 1587.0
16.2783 1288.0
16.3451 1054.0
16.412 855.0
16.4788 712.0
16.5457 675.0
16.6125 709.0
16.6793 747.0
16.7462 839.0
16.813 883.0
16.8799 903.0
16.9467 1010.0
17.0136 1006.0
17.0804 1024.0
17.1473 1005.0
17.2141 1002.0
17.2809 950.0
17.3478 882.0
17.4146 845.0
17.4815 861.0
17.5483 794.0
17.6152 819.0
17.682 778.0
17.7489 860.0
17.8157 902.0
17.8826 1053.0
17.9494 1057.0
18.0162 1053.0
18.0831 926.0
18.1499 790.0
18.2168 784.0
18.2836 679.0
18.3505 683.0
18.4173 670.0
18.4842 688.0
18.551 641.0
18.6179 648.0
18.6847 699.0
18.7515 652.0
18.8184 713.0
18.8852 690.0
18.9521 753.0
19.0189 776.0
19.0858 853.0
19.1526 923.0
19.2195 1084.0
19.2863 1106.0
19.3531 1075.0
19.42 1026.0
19.4868 918.0
19.5537 838.0
19.6205 880.0
19.6874 869.0
19.7542 971.0
19.8211 966.0
19.8879 1008.0
19.9548 972.0
20.0216 951.0
20.0884 943.0
20.1553 1026.0
20.2221 954.0
20.289 1004.0
20.3558 916.0
20.4227 961.0
20.4895 994.0
20.5564 1109.0
20.6232 1391.0
20.69 1840.0
20.7569 2504.0
20.8237 3279.0
20.8906 3220.0
20.9574 2514.0
21.0243 1943.0
21.0911 1684.0
21.158 1508.0
21.2248 1353.0
21.2917 1259.0
21.3585 1222.0
21.4253 1169.0
21.4922 1194.0
21.559 1078.0
21.6259 1132.0
21.6927 932.0
21.7596 926.0
21.8264 833.0
21.8933 797.0
21.9601 745.0
22.0269 767.0
22.0938 792.0
22.1606 824.0
22.2275 855.0
22.2943 835.0
22.3612 885.0
22.428 933.0
22.4949 924.0
22.5617 882.0
22.6286 867.0
22.6954 916.0
22.7622 903.0
22.8291 900.0
22.8959 903.0
22.9628 829.0
23.0296 908.0
23.0965 949.0
23.1633 1036.0
23.2302 1144.0
23.297 1266.0
23.3639 1259.0
23.4307 1135.0
23.4975 1146.0
23.5644 1090.0
23.6312 1047.0
23.6981 1052.0
23.7649 1084.0
23.8318 1137.0
23.8986 1176.0
23.9655 1270.0
24.0323 1353.0
24.0991 1308.0
24.166 1344.0
24.2328 1384.0
24.2997 1325.0
24.3665 1232.0
24.4334 1181.0
24.5002 1122.0
24.5671 1097.0
24.6339 1039.0
24.7008 1148.0
24.7676 1025.0
24.8344 1039.0
24.9013 1103.0
24.9681 1188.0
25.035 1293.0
25.1018 1401.0
25.1687 1442.0
25.2355 1469.0
25.3024 1352.0
25.3692 1261.0
25.436 1187.0
25.5029 1156.0
25.5697 1148.0
25.6366 1100.0
25.7034 1098.0
25.7703 1181.0
25.8371 1159.0
25.904 1208.0
25.9708 1356.0
26.0377 1414.0
26.1045 1666.0
26.1713 1864.0
26.2382 1892.0
26.305 1752.0
26.3719 1613.0
26.4387 1515.0
26.5056 1448.0
26.5724 1462.0
26.6393 1341.0
26.7061 1250.0
26.773 1252.0
26.8398 1167.0
26.9066 1185.0
26.9735 1042.0
27.0403 1064.0
27.1072 1037.0
27.174 1042.0
27.2409 1066.0
27.3077 1104.0
27.3746 1062.0
27.4414 992.0
27.5082 1039.0
27.5751 994.0
27.6419 1084.0
27.7088 1062.0
27.7756 1062.0
27.8425 1119.0
27.9093 1114.0
27.9762 1215.0
28.043 1169.0
28.1099 1150.0
28.1767 1110.0
28.2435 1128.0
28.3104 1207.0
28.3772 1198.0
28.4441 1176.0
28.5109 1169.0
28.5778 1128.0
28.6446 1112.0
28.7115 1133.0
28.7783 1163.0
28.8451 1080.0
28.912 1057.0
28.9788 1142.0
29.0457 1110.0
29.1125 1074.0
29.1794 1109.0
29.2462 993.0
29.3131 1074.0
29.3799 1017.0
29.4468 960.0
29.5136 1053.0
29.5804 1023.0
29.6473 1096.0
29.7141 1109.0
29.781 1083.0
29.8478 1214.0
29.9147 1223.0
29.9815 1252.0
30.0484 1221.0
30.1152 1283.0
30.182 1268.0
30.2489 1399.0
30.3157 1346.0
30.3826 1412.0
30.4494 1526.0
30.5163 1485.0
30.5831 1513.0
30.65 1553.0
30.7168 1702.0
30.7837 1859.0
30.8505 2165.0
30.9173 2479.0
30.9842 2587.0
31.051 2534.0
31.1179 2351.0
31.1847 2190.0
31.2516 2379.0
31.3184 2402.0
31.3853 2387.0
31.4521 2205.0
31.519 2002.0
31.5858 1814.0
31.6526 1667.0
31.7195 1652.0
31.7863 1540.0
31.8532 1481.0
31.92 1471.0
31.9869 1491.0
32.0537 1366.0
32.1206 1309.0
32.1874 1279.0
32.2542 1244.0
32.3211 1224.0
32.3879 1251.0
32.4548 1229.0
32.5216 1187.0
32.5885 1195.0
32.6553 1183.0
32.7222 1165.0
32.789 1130.0
32.8559 1127.0
32.9227 1052.0
32.9895 1118.0
33.0564 1041.0
33.1232 1063.0
33.1901 1006.0
33.2569 915.0
33.3238 909.0
33.3906 945.0
33.4575 872.0
33.5243 872.0
33.5911 818.0
33.658 839.0
33.7248 888.0
33.7917 907.0
33.8585 848.0
33.9254 860.0
33.9922 754.0
34.0591 832.0
34.1259 757.0
34.1928 774.0
34.2596 774.0
34.3264 786.0
34.3933 713.0
34.4601 762.0
34.527 793.0
34.5938 769.0
34.6607 720.0
34.7275 800.0
34.7944 800.0
34.8612 814.0
34.928 797.0
34.9949 806.0
35.0617 727.0
35.1286 720.0
35.1954 619.0
35.2623 669.0
35.3291 677.0
35.396 643.0
35.4628 625.0
35.5297 615.0
35.5965 589.0
35.6633 654.0
35.7302 617.0
35.797 611.0
35.8639 604.0
35.9307 611.0
35.9976 583.0
36.0644 592.0
36.1313 575.0
36.1981 573.0
36.265 636.0
36.3318 664.0
36.3986 662.0
36.4655 643.0
36.5323 592.0
36.5992 548.0
36.666 602.0
36.7329 574.0
36.7997 528.0
36.8666 582.0
36.9334 543.0
37.0002 561.0
37.0671 504.0
37.1339 529.0
37.2008 519.0
37.2676 488.0
37.3345 519.0
37.4013 477.0
37.4682 479.0
37.535 427.0
37.6019 483.0
37.6687 479.0
37.7355 498.0
37.8024 479.0
37.8692 504.0
37.9361 494.0
38.0029 501.0
38.0698 496.0
38.1366 485.0
38.2035 453.0
38.2703 450.0
38.3371 505.0
38.404 470.0
38.4708 495.0
38.5377 493.0
38.6045 473.0
38.6714 480.0
38.7382 525.0
38.8051 479.0
38.8719 436.0
38.9388 483.0
39.0056 494.0
39.0724 447.0
39.1393 513.0
39.2061 496.0
39.273 488.0
39.3398 509.0
39.4067 508.0
39.4735 526.0
39.5404 501.0
39.6072 532.0
39.6741 524.0
39.7409 578.0
39.8077 547.0
39.8746 523.0
39.9414 490.0
40.0083 569.0
40.0751 534.0
40.142 569.0
40.2088 587.0
40.2757 549.0
40.3425 529.0
40.4093 567.0
40.4762 543.0
40.543 491.0
40.6099 528.0
40.6767 507.0
40.7436 475.0
40.8104 528.0
40.8773 524.0
40.9441 510.0
41.011 542.0
41.0778 482.0
41.1446 509.0
41.2115 501.0
41.2783 520.0
41.3452 498.0
41.412 525.0
41.4789 498.0
41.5457 504.0
41.6126 467.0
41.6794 510.0
41.7462 485.0
41.8131 491.0
41.8799 480.0
41.9468 442.0
42.0136 491.0
42.0805 502.0
42.1473 525.0
42.2142 448.0
42.281 495.0
42.3479 500.0
42.4147 500.0
42.4815 443.0
42.5484 461.0
42.6152 506.0
42.6821 493.0
42.7489 502.0
42.8158 487.0
42.8826 531.0
42.9495 516.0
43.0163 528.0
43.0831 537.0
43.15 514.0
43.2168 558.0
43.2837 544.0
43.3505 486.0
43.4174 550.0
43.4842 549.0
43.5511 539.0
43.6179 541.0
43.6848 537.0
43.7516 559.0
43.8184 558.0
43.8853 531.0
43.9521 511.0
44.019 514.0
44.0858 529.0
44.1527 512.0
44.2195 502.0
44.2864 472.0
44.3532 493.0
44.4201 507.0
44.4869 501.0
44.5537 476.0
44.6206 472.0
44.6874 496.0
44.7543 496.0
44.8211 504.0
44.888 478.0
44.9548 428.0
45.0217 495.0
45.0885 445.0
45.1553 480.0
45.2222 489.0
45.289 466.0
45.3559 444.0
45.4227 492.0
45.4896 462.0
45.5564 493.0
45.6233 503.0
45.6901 488.0
45.757 478.0
45.8238 450.0
45.8906 490.0
45.9575 503.0
46.0243 440.0
46.0912 473.0
46.158 475.0
46.2249 441.0
46.2917 456.0
46.3586 488.0
46.4254 419.0
46.4922 520.0
46.5591 443.0
46.6259 460.0
46.6928 449.0
46.7596 474.0
46.8265 471.0
46.8933 479.0
46.9602 471.0
47.027 502.0
47.0939 489.0
47.1607 480.0
47.2275 469.0
47.2944 551.0
47.3612 432.0
47.4281 440.0
47.4949 487.0
47.5618 527.0
47.6286 489.0
47.6955 502.0
47.7623 548.0
47.8291 496.0
47.896 487.0
47.9628 500.0
48.0297 496.0
48.0965 514.0
48.1634 506.0
48.2302 525.0
48.2971 531.0
48.3639 564.0
48.4308 483.0
48.4976 572.0
48.5644 504.0
48.6313 497.0
48.6981 482.0
48.765 523.0
48.8318 517.0
48.8987 527.0
48.9655 544.0
49.0324 548.0
49.0992 561.0
49.1661 638.0
49.2329 675.0
49.2997 649.0
49.3666 659.0
49.4334 686.0
49.5003 695.0
49.5671 684.0
49.634 617.0
49.7008 619.0
49.7677 644.0
49.8345 653.0
49.9013 586.0
49.9682 628.0
50.035 664.0
50.1019 613.0
50.1687 633.0
50.2356 597.0
50.3024 568.0
50.3693 550.0
50.4361 580.0
50.503 526.0
50.5698 564.0
50.6366 554.0
50.7035 506.0
50.7703 511.0
50.8372 528.0
50.904 561.0
50.9709 542.0
51.0377 620.0
51.1046 576.0
51.1714 648.0
51.2382 629.0
51.3051 654.0
51.3719 611.0
51.4388 580.0
51.5056 568.0
51.5725 553.0
51.6393 582.0
51.7062 567.0
51.773 587.0
51.8399 579.0
51.9067 559.0
51.9735 539.0
52.0404 575.0
52.1072 536.0
52.1741 553.0
52.2409 532.0
52.3078 545.0
52.3746 544.0
52.4415 555.0
52.5083 537.0
52.5751 531.0
52.642 523.0
52.7088 539.0
52.7757 533.0
52.8425 506.0
52.9094 540.0
52.9762 509.0
53.0431 516.0
53.1099 488.0
53.1768 511.0
53.2436 557.0
53.3104 532.0
53.3773 535.0
53.4441 512.0
53.511 533.0
53.5778 539.0
53.6447 510.0
53.7115 570.0
53.7784 556.0
53.8452 573.0
53.9121 528.0
53.9789 532.0
54.0457 574.0
54.1126 521.0
54.1794 527.0
54.2463 520.0
54.3131 483.0
54.38 517.0
54.4468 543.0
54.5137 516.0
54.5805 489.0
54.6473 481.0
54.7142 481.0
54.781 513.0
54.8479 516.0
54.9147 524.0
54.9816 492.0
55.0484 505.0
55.1153 457.0
55.1821 432.0
55.249 511.0
55.3158 490.0
55.3826 489.0
55.4495 483.0
55.5163 505.0
55.5832 502.0
55.65 518.0
55.7169 528.0
55.7837 470.0
55.8506 497.0
55.9174 481.0
55.9842 496.0
56.0511 494.0
56.1179 516.0
56.1848 478.0
56.2516 482.0
56.3185 489.0
56.3853 496.0
56.4522 458.0
56.519 525.0
56.5859 520.0
56.6527 467.0
56.7195 492.0
56.7864 490.0
56.8532 469.0
56.9201 461.0
56.9869 473.0
57.0538 501.0
57.1206 511.0
57.1875 444.0
57.2543 454.0
57.3212 474.0
57.388 453.0
57.4548 449.0
57.5217 489.0
57.5885 447.0
57.6554 441.0
57.7222 418.0
57.7891 424.0
57.8559 450.0
57.9228 459.0
57.9896 422.0
58.0564 443.0
58.1233 434.0
58.1901 424.0
58.257 432.0
58.3238 416.0
58.3907 418.0
58.4575 466.0
58.5244 420.0
58.5912 387.0
58.6581 395.0
58.7249 410.0
58.7917 462.0
58.8586 433.0
58.9254 434.0
58.9923 465.0
59.0591 391.0
59.126 423.0
59.1928 430.0
59.2597 410.0
59.3265 391.0
59.3933 408.0
59.4602 432.0
59.527 443.0
59.5939 440.0
59.6607 461.0
59.7276 414.0
59.7944 448.0
59.8613 455.0
59.9281 439.0
59.995 502.0
60.0618 476.0
60.1286 513.0
60.1955 500.0
60.2623 446.0
60.3292 481.0
60.396 438.0
60.4629 471.0
60.5297 438.0
60.5966 467.0
60.6634 482.0
60.7302 498.0
60.7971 413.0
60.8639 483.0
60.9308 477.0
60.9976 463.0
61.0645 450.0
61.1313 462.0
61.1982 446.0
61.265 450.0
61.3319 465.0
61.3987 462.0
61.4655 438.0
61.5324 451.0
61.5992 481.0
61.6661 444.0
61.7329 415.0
61.7998 417.0
61.8666 426.0
61.9335 459.0
62.0003 449.0
62.0672 457.0
62.134 430.0
62.2008 415.0
62.2677 436.0
62.3345 459.0
62.4014 428.0
62.4682 487.0
62.5351 460.0
62.6019 441.0
62.6688 430.0
62.7356 451.0
62.8024 420.0
62.8693 414.0
62.9361 424.0
63.003 425.0
63.0698 429.0
63.1367 410.0
63.2035 418.0
63.2704 438.0
63.3372 428.0
63.4041 423.0
63.4709 450.0
63.5377 455.0
63.6046 423.0
63.6714 367.0
63.7383 435.0
63.8051 408.0
63.872 430.0
63.9388 393.0
64.0057 411.0
64.0725 412.0
64.1393 406.0
64.2062 402.0
64.273 407.0
64.3399 410.0
64.4067 449.0
64.4736 406.0
64.5404 428.0
64.6073 394.0
64.6741 389.0
64.741 388.0
64.8078 412.0
64.8746 426.0
64.9415 382.0
65.0083 440.0
65.0752 394.0
65.142 434.0
65.2089 387.0
65.2757 399.0
65.3426 420.0
65.4094 431.0
65.4762 410.0
65.5431 442.0
65.6099 404.0
65.6768 404.0
65.7436 392.0
65.8105 413.0
65.8773 413.0
65.9442 419.0
66.011 410.0
66.0779 428.0
66.1447 422.0
66.2115 424.0
66.2784 422.0
66.3452 394.0
66.4121 415.0
66.4789 413.0
66.5458 398.0
66.6126 436.0
66.6795 463.0
66.7463 487.0
66.8132 483.0
66.88 457.0
66.9468 432.0
67.0137 475.0
67.0805 434.0
67.1474 439.0
67.2142 455.0
67.2811 439.0
67.3479 431.0
67.4148 418.0
67.4816 450.0
67.5484 411.0
67.6153 433.0
67.6821 396.0
67.749 458.0
67.8158 431.0
67.8827 402.0
67.9495 392.0
68.0164 411.0
68.0832 427.0
68.1501 449.0
68.2169 457.0
68.2837 408.0
68.3506 410.0
68.4174 404.0
68.4843 410.0
68.5511 427.0
68.618 426.0
68.6848 401.0
68.7517 436.0
68.8185 434.0
68.8853 438.0
68.9522 423.0
69.019 402.0
69.0859 416.0
69.1527 403.0
69.2196 402.0
69.2864 449.0
69.3533 399.0
69.4201 415.0
69.487 436.0
69.5538 414.0
69.6206 423.0
69.6875 413.0
69.7543 415.0
69.8212 433.0
69.888 373.0
69.9549 422.0
70.0217 429.0
70.0886 443.0
70.1554 396.0
70.2222 433.0
70.2891 434.0
70.3559 428.0
70.4228 394.0
70.4896 429.0
70.5565 441.0
70.6233 393.0
70.6902 403.0
70.757 430.0
70.8239 427.0
70.8907 403.0
70.9575 419.0
71.0244 367.0
71.0912 426.0
71.1581 433.0
71.2249 386.0
71.2918 417.0
71.3586 366.0
71.4255 406.0
71.4923 428.0
71.5592 419.0
71.626 431.0
71.6928 417.0
71.7597 377.0
71.8265 400.0
71.8934 387.0
71.9602 403.0
72.0271 397.0
72.0939 413.0
72.1608 425.0
72.2276 386.0
72.2944 422.0
72.3613 407.0
72.4281 398.0
72.495 440.0
72.5618 401.0
72.6287 430.0
72.6955 377.0
72.7624 391.0
72.8292 435.0
72.8961 409.0
72.9629 397.0
73.0297 412.0
73.0966 411.0
73.1634 372.0
73.2303 383.0
73.2971 416.0
73.364 357.0
73.4308 455.0
73.4977 388.0
73.5645 365.0
73.6313 393.0
73.6982 370.0
73.765 388.0
73.8319 403.0
73.8987 395.0
73.9656 376.0
74.0324 392.0
74.0993 346.0
74.1661 396.0
74.233 336.0
74.2998 333.0
74.3666 360.0
74.4335 375.0
74.5003 368.0
74.5672 379.0
74.634 397.0
74.7009 429.0
74.7677 376.0
74.8346 379.0
74.9014 362.0
74.9683 385.0
75.0351 363.0
75.1019 380.0
75.1688 381.0
75.2356 403.0
75.3025 361.0
75.3693 373.0
75.4362 376.0
75.503 336.0
75.5699 345.0
75.6367 376.0
75.7035 357.0
75.7704 360.0
75.8372 347.0
75.9041 349.0
75.9709 389.0
76.0378 322.0
76.1046 346.0
76.1715 369.0
76.2383 373.0
76.3052 352.0
76.372 321.0
76.4388 360.0
76.5057 362.0
76.5725 389.0
76.6394 363.0
76.7062 356.0
76.7731 361.0
76.8399 384.0
76.9068 350.0
76.9736 397.0
77.0404 375.0
77.1073 351.0
77.1741 331.0
77.241 346.0
77.3078 308.0
77.3747 357.0
77.4415 378.0
77.5084 303.0
77.5752 340.0
77.6421 371.0
77.7089 334.0
77.7757 307.0
77.8426 339.0
77.9094 328.0
77.9763 361.0
78.0431 372.0
78.11 346.0
78.1768 336.0
78.2437 306.0
78.3105 309.0
78.3773 348.0
78.4442 308.0
78.511 348.0
78.5779 328.0
78.6447 329.0
78.7116 313.0
78.7784 342.0
78.8453 356.0
78.9121 333.0
78.979 311.0
79.0458 323.0
79.1126 300.0
79.1795 332.0
79.2463 321.0
79.3132 315.0
79.38 334.0
79.4469 335.0
79.5137 323.0
79.5806 324.0
79.6474 299.0
79.7143 279.0
79.7811 299.0
79.8479 298.0
79.9148 298.0
79.9816 300.0
80.0485 318.0
80.1153 305.0
80.1822 326.0
80.249 284.0
80.3159 284.0
80.3827 293.0
80.4495 261.0
80.5164 299.0
80.5832 285.0
80.6501 295.0
80.7169 280.0
80.7838 277.0
80.8506 274.0
80.9175 269.0
80.9843 290.0
81.0512 329.0
81.118 319.0
81.1848 326.0
81.2517 268.0
81.3185 322.0
81.3854 299.0
81.4522 288.0
81.5191 310.0
81.5859 311.0
81.6528 318.0
81.7196 278.0
81.7864 292.0
81.8533 264.0
81.9201 285.0
81.987 285.0
82.0538 293.0
82.1207 297.0
82.1875 299.0
82.2544 284.0
82.3212 274.0
82.3881 277.0
82.4549 267.0
82.5217 308.0
82.5886 279.0
82.6554 259.0
82.7223 246.0
82.7891 290.0
82.856 277.0
82.9228 263.0
82.9897 302.0
83.0565 269.0
83.1233 285.0
83.1902 285.0
83.257 259.0
83.3239 316.0
83.3907 280.0
83.4576 310.0
83.5244 269.0
83.5913 268.0
83.6581 266.0
83.725 263.0
83.7918 269.0
83.8586 260.0
83.9255 250.0
83.9923 255.0
84.0592 253.0
84.126 259.0
84.1929 229.0
84.2597 247.0
84.3266 269.0
84.3934 231.0
84.4603 246.0
84.5271 252.0
84.5939 253.0
84.6608 223.0
84.7276 222.0
84.7945 284.0
84.8613 254.0
84.9282 257.0
84.995 260.0
85.0619 231.0
85.1287 236.0
85.1955 239.0
85.2624 245.0
85.3292 256.0
85.3961 253.0
85.4629 275.0
85.5298 262.0
85.5966 251.0
85.6635 247.0
85.7303 247.0
85.7972 254.0
85.864 254.0
85.9308 243.0
85.9977 238.0
86.0645 252.0
86.1314 233.0
86.1982 247.0
86.2651 239.0
86.3319 241.0
86.3988 230.0
86.4656 237.0
86.5324 272.0
86.5993 237.0
86.6661 231.0
86.733 240.0
86.7998 241.0
86.8667 227.0
86.9335 221.0
87.0004 217.0
87.0672 242.0
87.1341 235.0
87.2009 215.0
87.2677 205.0
87.3346 220.0
87.4014 236.0
87.4683 222.0
87.5351 241.0
87.602 216.0
87.6688 206.0
87.7357 244.0
87.8025 219.0
87.8693 258.0
87.9362 227.0
88.003 195.0
88.0699 229.0
88.1367 216.0
88.2036 230.0
88.2704 200.0
88.3373 220.0
88.4041 205.0
88.471 222.0
88.5378 222.0
88.6046 224.0
88.6715 201.0
88.7383 206.0
88.8052 212.0
88.872 217.0
88.9389 211.0
89.0057 212.0
89.0726 203.0
89.1394 226.0
89.2063 207.0
89.2731 223.0
89.3399 198.0
89.4068 237.0
89.4736 212.0
89.5405 221.0
89.6073 194.0
89.6742 220.0
89.741 223.0
89.8079 223.0
89.8747 231.0
89.9415 197.0