File: code/XRD_Analysis/External Sources/Fabian/SAPO-34/240412_SAPO-34_SiAl_045.xy
4.98146 1007.0
5.0483 958.0
5.11515 961.0
5.18199 919.0
5.24884 907.0
5.31568 914.0
5.38253 898.0
5.44937 917.0
5.51622 891.0
5.58306 868.0
5.64991 826.0
5.71675 852.0
5.7836 847.0
5.85044 868.0
5.91729 771.0
5.98413 834.0
6.05098 739.0
6.11782 781.0
6.18467 799.0
6.25151 787.0
6.31836 739.0
6.3852 788.0
6.45205 767.0
6.51889 773.0
6.58574 746.0
6.65258 725.0
6.71943 735.0
6.78627 712.0
6.85312 701.0
6.91996 722.0
6.98681 699.0
7.05365 710.0
7.1205 693.0
7.18734 657.0
7.25419 705.0
7.32103 645.0
7.38788 635.0
7.45472 637.0
7.52157 681.0
7.58841 704.0
7.65526 644.0
7.7221 615.0
7.78895 625.0
7.85579 611.0
7.92264 681.0
7.98948 556.0
8.05633 587.0
8.12317 579.0
8.19002 659.0
8.25686 600.0
8.32371 596.0
8.39055 602.0
8.4574 614.0
8.52424 596.0
8.59109 598.0
8.65793 586.0
8.72478 598.0
8.79162 556.0
8.85847 599.0
8.92532 549.0
8.99216 599.0
9.05901 586.0
9.12585 547.0
9.1927 609.0
9.25954 638.0
9.32639 689.0
9.39323 789.0
9.46008 1143.0
9.52692 1742.0
9.59377 2891.0
9.66061 5273.0
9.72746 8361.0
9.7943 9101.0
9.86115 5920.0
9.92799 3002.0
9.99484 1853.0
10.0617 1472.0
10.1285 1194.0
10.1954 1084.0
10.2622 992.0
10.3291 866.0
10.3959 744.0
10.4628 741.0
10.5296 750.0
10.5964 786.0
10.6633 770.0
10.7301 844.0
10.797 743.0
10.8638 823.0
10.9307 735.0
10.9975 720.0
11.0644 660.0
11.1312 659.0
11.198 617.0
11.2649 613.0
11.3317 571.0
11.3986 569.0
11.4654 550.0
11.5323 544.0
11.5991 550.0
11.666 490.0
11.7328 504.0
11.7997 480.0
11.8665 558.0
11.9333 497.0
12.0002 552.0
12.067 529.0
12.1339 548.0
12.2007 539.0
12.2676 558.0
12.3344 525.0
12.4013 534.0
12.4681 535.0
12.5349 528.0
12.6018 555.0
12.6686 504.0
12.7355 566.0
12.8023 584.0
12.8692 683.0
12.936 766.0
13.0029 1078.0
13.0697 1633.0
13.1366 2142.0
13.2034 2386.0
13.2702 1762.0
13.3371 1392.0
13.4039 972.0
13.4708 755.0
13.5376 706.0
13.6045 703.0
13.6713 699.0
13.7382 633.0
13.805 616.0
13.8719 552.0
13.9387 520.0
14.0055 519.0
14.0724 569.0
14.1392 539.0
14.2061 628.0
14.2729 653.0
14.3398 570.0
14.4066 545.0
14.4735 492.0
14.5403 451.0
14.6071 490.0
14.674 469.0
14.7408 418.0
14.8077 467.0
14.8745 451.0
14.9414 471.0
15.0082 507.0
15.0751 465.0
15.1419 429.0
15.2088 478.0
15.2756 429.0
15.3424 487.0
15.4093 460.0
15.4761 563.0
15.543 566.0
15.6098 656.0
15.6767 720.0
15.7435 769.0
15.8104 676.0
15.8772 649.0
15.944 637.0
16.0109 663.0
16.0777 740.0
16.1446 863.0
16.2114 1120.0
16.2783 1477.0
16.3451 1588.0
16.412 1431.0
16.4788 966.0
16.5457 795.0
16.6125 787.0
16.6793 734.0
16.7462 815.0
16.813 794.0
16.8799 864.0
16.9467 944.0
17.0136 1071.0
17.0804 1067.0
17.1473 1066.0
17.2141 1169.0
17.2809 1072.0
17.3478 1000.0
17.4146 996.0
17.4815 962.0
17.5483 925.0
17.6152 934.0
17.682 809.0
17.7489 763.0
17.8157 819.0
17.8826 824.0
17.9494 863.0
18.0162 1050.0
18.0831 1173.0
18.1499 1248.0
18.2168 1090.0
18.2836 895.0
18.3505 799.0
18.4173 759.0
18.4842 712.0
18.551 668.0
18.6179 706.0
18.6847 745.0
18.7515 657.0
18.8184 719.0
18.8852 738.0
18.9521 720.0
19.0189 748.0
19.0858 850.0
19.1526 854.0
19.2195 851.0
19.2863 1041.0
19.3531 1091.0
19.42 1177.0
19.4868 1140.0
19.5537 1023.0
19.6205 916.0
19.6874 948.0
19.7542 934.0
19.8211 959.0
19.8879 984.0
19.9548 1022.0
20.0216 1035.0
20.0884 1016.0
20.1553 986.0
20.2221 1007.0
20.289 1032.0
20.3558 974.0
20.4227 1021.0
20.4895 1079.0
20.5564 996.0
20.6232 1208.0
20.69 1330.0
20.7569 1659.0
20.8237 2068.0
20.8906 2961.0
20.9574 3735.0
21.0243 3415.0
21.0911 2574.0
21.158 2112.0
21.2248 1776.0
21.2917 1644.0
21.3585 1344.0
21.4253 1386.0
21.4922 1304.0
21.559 1297.0
21.6259 1269.0
21.6927 1179.0
21.7596 1050.0
21.8264 959.0
21.8933 892.0
21.9601 791.0
22.0269 734.0
22.0938 760.0
22.1606 819.0
22.2275 752.0
22.2943 834.0
22.3612 888.0
22.428 869.0
22.4949 911.0
22.5617 899.0
22.6286 941.0
22.6954 894.0
22.7622 984.0
22.8291 1003.0
22.8959 933.0
22.9628 984.0
23.0296 987.0
23.0965 943.0
23.1633 922.0
23.2302 996.0
23.297 1011.0
23.3639 1177.0
23.4307 1395.0
23.4975 1363.0
23.5644 1238.0
23.6312 1185.0
23.6981 1062.0
23.7649 1123.0
23.8318 1156.0
23.8986 1230.0
23.9655 1219.0
24.0323 1361.0
24.0991 1403.0
24.166 1421.0
24.2328 1404.0
24.2997 1425.0
24.3665 1337.0
24.4334 1304.0
24.5002 1270.0
24.5671 1287.0
24.6339 1197.0
24.7008 1138.0
24.7676 1088.0
24.8344 1149.0
24.9013 1113.0
24.9681 1053.0
25.035 1122.0
25.1018 1208.0
25.1687 1227.0
25.2355 1455.0
25.3024 1500.0
25.3692 1518.0
25.436 1394.0
25.5029 1315.0
25.5697 1213.0
25.6366 1210.0
25.7034 1237.0
25.7703 1129.0
25.8371 1173.0
25.904 1158.0
25.9708 1252.0
26.0377 1309.0
26.1045 1510.0
26.1713 1645.0
26.2382 1906.0
26.305 2027.0
26.3719 1991.0
26.4387 1768.0
26.5056 1606.0
26.5724 1663.0
26.6393 1602.0
26.7061 1523.0
26.773 1388.0
26.8398 1336.0
26.9066 1265.0
26.9735 1170.0
27.0403 1102.0
27.1072 1116.0
27.174 1132.0
27.2409 1037.0
27.3077 1047.0
27.3746 1033.0
27.4414 1017.0
27.5082 1051.0
27.5751 1072.0
27.6419 1062.0
27.7088 1043.0
27.7756 1080.0
27.8425 1085.0
27.9093 1087.0
27.9762 1253.0
28.043 1205.0
28.1099 1157.0
28.1767 1193.0
28.2435 1160.0
28.3104 1126.0
28.3772 1178.0
28.4441 1168.0
28.5109 1314.0
28.5778 1324.0
28.6446 1219.0
28.7115 1144.0
28.7783 1232.0
28.8451 1175.0
28.912 1142.0
28.9788 1072.0
29.0457 1152.0
29.1125 1091.0
29.1794 1195.0
29.2462 1020.0
29.3131 1049.0
29.3799 1100.0
29.4468 1098.0
29.5136 1105.0
29.5804 1081.0
29.6473 1064.0
29.7141 1048.0
29.781 1157.0
29.8478 1131.0
29.9147 1269.0
29.9815 1278.0
30.0484 1207.0
30.1152 1313.0
30.182 1318.0
30.2489 1343.0
30.3157 1384.0
30.3826 1466.0
30.4494 1525.0
30.5163 1570.0
30.5831 1549.0
30.65 1582.0
30.7168 1618.0
30.7837 1679.0
30.8505 1875.0
30.9173 2008.0
30.9842 2362.0
31.051 2636.0
31.1179 2749.0
31.1847 2632.0
31.2516 2457.0
31.3184 2436.0
31.3853 2466.0
31.4521 2550.0
31.519 2487.0
31.5858 2377.0
31.6526 2149.0
31.7195 1997.0
31.7863 1815.0
31.8532 1766.0
31.92 1683.0
31.9869 1546.0
32.0537 1564.0
32.1206 1510.0
32.1874 1439.0
32.2542 1402.0
32.3211 1268.0
32.3879 1286.0
32.4548 1274.0
32.5216 1296.0
32.5885 1293.0
32.6553 1244.0
32.7222 1279.0
32.789 1245.0
32.8559 1220.0
32.9227 1190.0
32.9895 1206.0
33.0564 1145.0
33.1232 1127.0
33.1901 1145.0
33.2569 1050.0
33.3238 1051.0
33.3906 967.0
33.4575 970.0
33.5243 888.0
33.5911 916.0
33.658 943.0
33.7248 925.0
33.7917 894.0
33.8585 877.0
33.9254 885.0
33.9922 887.0
34.0591 813.0
34.1259 856.0
34.1928 793.0
34.2596 794.0
34.3264 759.0
34.3933 790.0
34.4601 766.0
34.527 824.0
34.5938 816.0
34.6607 786.0
34.7275 732.0
34.7944 806.0
34.8612 804.0
34.928 852.0
34.9949 859.0
35.0617 855.0
35.1286 804.0
35.1954 719.0
35.2623 786.0
35.3291 688.0
35.396 707.0
35.4628 692.0
35.5297 715.0
35.5965 661.0
35.6633 633.0
35.7302 639.0
35.797 606.0
35.8639 619.0
35.9307 579.0
35.9976 642.0
36.0644 594.0
36.1313 647.0
36.1981 644.0
36.265 590.0
36.3318 586.0
36.3986 635.0
36.4655 647.0
36.5323 694.0
36.5992 661.0
36.666 627.0
36.7329 642.0
36.7997 580.0
36.8666 582.0
36.9334 600.0
37.0002 576.0
37.0671 572.0
37.1339 574.0
37.2008 512.0
37.2676 581.0
37.3345 529.0
37.4013 511.0
37.4682 519.0
37.535 520.0
37.6019 552.0
37.6687 522.0
37.7355 512.0
37.8024 482.0
37.8692 529.0
37.9361 482.0
38.0029 522.0
38.0698 476.0
38.1366 531.0
38.2035 496.0
38.2703 496.0
38.3371 446.0
38.404 469.0
38.4708 463.0
38.5377 514.0
38.6045 490.0
38.6714 479.0
38.7382 521.0
38.8051 482.0
38.8719 503.0
38.9388 487.0
39.0056 481.0
39.0724 507.0
39.1393 510.0
39.2061 503.0
39.273 510.0
39.3398 492.0
39.4067 511.0
39.4735 531.0
39.5404 539.0
39.6072 549.0
39.6741 537.0
39.7409 535.0
39.8077 510.0
39.8746 570.0
39.9414 557.0
40.0083 584.0
40.0751 549.0
40.142 551.0
40.2088 572.0
40.2757 586.0
40.3425 571.0
40.4093 568.0
40.4762 548.0
40.543 534.0
40.6099 539.0
40.6767 529.0
40.7436 535.0
40.8104 543.0
40.8773 544.0
40.9441 508.0
41.011 509.0
41.0778 479.0
41.1446 502.0
41.2115 504.0
41.2783 460.0
41.3452 528.0
41.412 506.0
41.4789 523.0
41.5457 513.0
41.6126 504.0
41.6794 505.0
41.7462 462.0
41.8131 501.0
41.8799 528.0
41.9468 478.0
42.0136 479.0
42.0805 502.0
42.1473 534.0
42.2142 508.0
42.281 512.0
42.3479 508.0
42.4147 514.0
42.4815 526.0
42.5484 495.0
42.6152 507.0
42.6821 510.0
42.7489 512.0
42.8158 490.0
42.8826 531.0
42.9495 534.0
43.0163 504.0
43.0831 549.0
43.15 566.0
43.2168 493.0
43.2837 517.0
43.3505 543.0
43.4174 567.0
43.4842 580.0
43.5511 582.0
43.6179 564.0
43.6848 554.0
43.7516 561.0
43.8184 560.0
43.8853 547.0
43.9521 569.0
44.019 554.0
44.0858 587.0
44.1527 504.0
44.2195 533.0
44.2864 509.0
44.3532 518.0
44.4201 496.0
44.4869 473.0
44.5537 502.0
44.6206 557.0
44.6874 525.0
44.7543 492.0
44.8211 540.0
44.888 504.0
44.9548 477.0
45.0217 505.0
45.0885 524.0
45.1553 486.0
45.2222 510.0
45.289 480.0
45.3559 467.0
45.4227 527.0
45.4896 480.0
45.5564 539.0
45.6233 496.0
45.6901 496.0
45.757 461.0
45.8238 460.0
45.8906 501.0
45.9575 492.0
46.0243 431.0
46.0912 463.0
46.158 457.0
46.2249 441.0
46.2917 529.0
46.3586 473.0
46.4254 464.0
46.4922 512.0
46.5591 506.0
46.6259 463.0
46.6928 492.0
46.7596 490.0
46.8265 490.0
46.8933 477.0
46.9602 428.0
47.027 502.0
47.0939 477.0
47.1607 488.0
47.2275 493.0
47.2944 502.0
47.3612 540.0
47.4281 492.0
47.4949 519.0
47.5618 535.0
47.6286 525.0
47.6955 521.0
47.7623 519.0
47.8291 475.0
47.896 513.0
47.9628 494.0
48.0297 482.0
48.0965 500.0
48.1634 553.0
48.2302 491.0
48.2971 531.0
48.3639 534.0
48.4308 555.0
48.4976 478.0
48.5644 522.0
48.6313 606.0
48.6981 533.0
48.765 526.0
48.8318 570.0
48.8987 553.0
48.9655 563.0
49.0324 529.0
49.0992 586.0
49.1661 573.0
49.2329 587.0
49.2997 667.0
49.3666 618.0
49.4334 683.0
49.5003 712.0
49.5671 716.0
49.634 694.0
49.7008 686.0
49.7677 705.0
49.8345 703.0
49.9013 659.0
49.9682 661.0
50.035 646.0
50.1019 631.0
50.1687 645.0
50.2356 594.0
50.3024 604.0
50.3693 619.0
50.4361 588.0
50.503 589.0
50.5698 604.0
50.6366 620.0
50.7035 605.0
50.7703 629.0
50.8372 547.0
50.904 600.0
50.9709 564.0
51.0377 605.0
51.1046 611.0
51.1714 610.0
51.2382 667.0
51.3051 691.0
51.3719 688.0
51.4388 659.0
51.5056 643.0
51.5725 613.0
51.6393 601.0
51.7062 568.0
51.773 558.0
51.8399 560.0
51.9067 597.0
51.9735 555.0
52.0404 576.0
52.1072 579.0
52.1741 611.0
52.2409 596.0
52.3078 541.0
52.3746 633.0
52.4415 606.0
52.5083 538.0
52.5751 581.0
52.642 611.0
52.7088 524.0
52.7757 551.0
52.8425 541.0
52.9094 589.0
52.9762 554.0
53.0431 578.0
53.1099 513.0
53.1768 545.0
53.2436 564.0
53.3104 564.0
53.3773 552.0
53.4441 564.0
53.511 545.0
53.5778 575.0
53.6447 578.0
53.7115 552.0
53.7784 559.0
53.8452 560.0
53.9121 583.0
53.9789 598.0
54.0457 575.0
54.1126 576.0
54.1794 569.0
54.2463 549.0
54.3131 570.0
54.38 531.0
54.4468 514.0
54.5137 550.0
54.5805 522.0
54.6473 560.0
54.7142 522.0
54.781 533.0
54.8479 532.0
54.9147 519.0
54.9816 581.0
55.0484 524.0
55.1153 559.0
55.1821 510.0
55.249 559.0
55.3158 564.0
55.3826 471.0
55.4495 518.0
55.5163 503.0
55.5832 542.0
55.65 561.0
55.7169 544.0
55.7837 555.0
55.8506 474.0
55.9174 568.0
55.9842 482.0
56.0511 505.0
56.1179 528.0
56.1848 538.0
56.2516 510.0
56.3185 500.0
56.3853 534.0
56.4522 505.0
56.519 525.0
56.5859 525.0
56.6527 580.0
56.7195 519.0
56.7864 561.0
56.8532 534.0
56.9201 528.0
56.9869 526.0
57.0538 538.0
57.1206 472.0
57.1875 478.0
57.2543 477.0
57.3212 514.0
57.388 497.0
57.4548 481.0
57.5217 487.0
57.5885 479.0
57.6554 460.0
57.7222 462.0
57.7891 476.0
57.8559 431.0
57.9228 472.0
57.9896 451.0
58.0564 461.0
58.1233 463.0
58.1901 460.0
58.257 439.0
58.3238 407.0
58.3907 438.0
58.4575 458.0
58.5244 424.0
58.5912 411.0
58.6581 412.0
58.7249 428.0
58.7917 445.0
58.8586 416.0
58.9254 444.0
58.9923 419.0
59.0591 432.0
59.126 474.0
59.1928 451.0
59.2597 439.0
59.3265 432.0
59.3933 454.0
59.4602 450.0
59.527 451.0
59.5939 433.0
59.6607 453.0
59.7276 420.0
59.7944 464.0
59.8613 477.0
59.9281 538.0
59.995 473.0
60.0618 476.0
60.1286 476.0
60.1955 494.0
60.2623 486.0
60.3292 476.0
60.396 483.0
60.4629 480.0
60.5297 495.0
60.5966 511.0
60.6634 538.0
60.7302 496.0
60.7971 488.0
60.8639 503.0
60.9308 526.0
60.9976 471.0
61.0645 507.0
61.1313 502.0
61.1982 474.0
61.265 474.0
61.3319 480.0
61.3987 501.0
61.4655 517.0
61.5324 500.0
61.5992 486.0
61.6661 485.0
61.7329 485.0
61.7998 450.0
61.8666 461.0
61.9335 476.0
62.0003 517.0
62.0672 455.0
62.134 509.0
62.2008 445.0
62.2677 505.0
62.3345 487.0
62.4014 465.0
62.4682 495.0
62.5351 488.0
62.6019 498.0
62.6688 472.0
62.7356 473.0
62.8024 467.0
62.8693 477.0
62.9361 445.0
63.003 456.0
63.0698 424.0
63.1367 427.0
63.2035 465.0
63.2704 389.0
63.3372 442.0
63.4041 444.0
63.4709 450.0
63.5377 478.0
63.6046 415.0
63.6714 414.0
63.7383 444.0
63.8051 420.0
63.872 457.0
63.9388 420.0
64.0057 444.0
64.0725 462.0
64.1393 409.0
64.2062 441.0
64.273 409.0
64.3399 444.0
64.4067 389.0
64.4736 431.0
64.5404 428.0
64.6073 450.0
64.6741 444.0
64.741 426.0
64.8078 446.0
64.8746 434.0
64.9415 443.0
65.0083 442.0
65.0752 376.0
65.142 467.0
65.2089 434.0
65.2757 438.0
65.3426 443.0
65.4094 455.0
65.4762 358.0
65.5431 398.0
65.6099 398.0
65.6768 404.0
65.7436 414.0
65.8105 438.0
65.8773 422.0
65.9442 403.0
66.011 428.0
66.0779 406.0
66.1447 458.0
66.2115 410.0
66.2784 458.0
66.3452 451.0
66.4121 424.0
66.4789 451.0
66.5458 402.0
66.6126 487.0
66.6795 472.0
66.7463 469.0
66.8132 476.0
66.88 439.0
66.9468 451.0
67.0137 465.0
67.0805 446.0
67.1474 496.0
67.2142 461.0
67.2811 456.0
67.3479 475.0
67.4148 464.0
67.4816 451.0
67.5484 423.0
67.6153 449.0
67.6821 444.0
67.749 450.0
67.8158 410.0
67.8827 415.0
67.9495 456.0
68.0164 473.0
68.0832 453.0
68.1501 450.0
68.2169 400.0
68.2837 453.0
68.3506 427.0
68.4174 422.0
68.4843 426.0
68.5511 443.0
68.618 482.0
68.6848 432.0
68.7517 441.0
68.8185 507.0
68.8853 431.0
68.9522 432.0
69.019 436.0
69.0859 455.0
69.1527 443.0
69.2196 467.0
69.2864 444.0
69.3533 460.0
69.4201 416.0
69.487 457.0
69.5538 474.0
69.6206 401.0
69.6875 470.0
69.7543 486.0
69.8212 476.0
69.888 443.0
69.9549 474.0
70.0217 481.0
70.0886 462.0
70.1554 424.0
70.2222 454.0
70.2891 454.0
70.3559 434.0
70.4228 427.0
70.4896 521.0
70.5565 424.0
70.6233 461.0
70.6902 457.0
70.757 442.0
70.8239 424.0
70.8907 440.0
70.9575 418.0
71.0244 457.0
71.0912 453.0
71.1581 412.0
71.2249 425.0
71.2918 445.0
71.3586 399.0
71.4255 485.0
71.4923 463.0
71.5592 443.0
71.626 494.0
71.6928 455.0
71.7597 459.0
71.8265 462.0
71.8934 429.0
71.9602 440.0
72.0271 420.0
72.0939 416.0
72.1608 439.0
72.2276 435.0
72.2944 450.0
72.3613 458.0
72.4281 408.0
72.495 439.0
72.5618 470.0
72.6287 403.0
72.6955 393.0
72.7624 403.0
72.8292 413.0
72.8961 404.0
72.9629 426.0
73.0297 436.0
73.0966 419.0
73.1634 427.0
73.2303 422.0
73.2971 419.0
73.364 424.0
73.4308 438.0
73.4977 433.0
73.5645 353.0
73.6313 429.0
73.6982 474.0
73.765 404.0
73.8319 444.0
73.8987 435.0
73.9656 438.0
74.0324 426.0
74.0993 394.0
74.1661 409.0
74.233 438.0
74.2998 415.0
74.3666 403.0
74.4335 411.0
74.5003 416.0
74.5672 406.0
74.634 393.0
74.7009 410.0
74.7677 409.0
74.8346 365.0
74.9014 388.0
74.9683 369.0
75.0351 473.0
75.1019 358.0
75.1688 396.0
75.2356 423.0
75.3025 402.0
75.3693 414.0
75.4362 392.0
75.503 326.0
75.5699 367.0
75.6367 408.0
75.7035 382.0
75.7704 394.0
75.8372 369.0
75.9041 396.0
75.9709 380.0
76.0378 434.0
76.1046 400.0
76.1715 383.0
76.2383 383.0
76.3052 358.0
76.372 371.0
76.4388 372.0
76.5057 381.0
76.5725 339.0
76.6394 372.0
76.7062 402.0
76.7731 422.0
76.8399 399.0
76.9068 365.0
76.9736 402.0
77.0404 391.0
77.1073 381.0
77.1741 366.0
77.241 352.0
77.3078 346.0
77.3747 321.0
77.4415 396.0
77.5084 329.0
77.5752 347.0
77.6421 398.0
77.7089 443.0
77.7757 387.0
77.8426 350.0
77.9094 368.0
77.9763 382.0
78.0431 348.0
78.11 368.0
78.1768 369.0
78.2437 377.0
78.3105 365.0
78.3773 353.0
78.4442 379.0
78.511 398.0
78.5779 355.0
78.6447 371.0
78.7116 348.0
78.7784 375.0
78.8453 334.0
78.9121 334.0
78.979 370.0
79.0458 368.0
79.1126 379.0
79.1795 321.0
79.2463 331.0
79.3132 347.0
79.38 371.0
79.4469 345.0
79.5137 336.0
79.5806 317.0
79.6474 340.0
79.7143 362.0
79.7811 333.0
79.8479 314.0
79.9148 338.0
79.9816 321.0
80.0485 304.0
80.1153 350.0
80.1822 330.0
80.249 325.0
80.3159 330.0
80.3827 338.0
80.4495 313.0
80.5164 332.0
80.5832 316.0
80.6501 324.0
80.7169 337.0
80.7838 329.0
80.8506 305.0
80.9175 350.0
80.9843 335.0
81.0512 319.0
81.118 330.0
81.1848 339.0
81.2517 337.0
81.3185 311.0
81.3854 334.0
81.4522 331.0
81.5191 306.0
81.5859 345.0
81.6528 315.0
81.7196 299.0
81.7864 318.0
81.8533 324.0
81.9201 298.0
81.987 317.0
82.0538 322.0
82.1207 330.0
82.1875 314.0
82.2544 299.0
82.3212 340.0
82.3881 305.0
82.4549 328.0
82.5217 319.0
82.5886 271.0
82.6554 302.0
82.7223 314.0
82.7891 268.0
82.856 282.0
82.9228 284.0
82.9897 298.0
83.0565 269.0
83.1233 284.0
83.1902 305.0
83.257 251.0
83.3239 276.0
83.3907 289.0
83.4576 291.0
83.5244 258.0
83.5913 288.0
83.6581 282.0
83.725 250.0
83.7918 275.0
83.8586 283.0
83.9255 263.0
83.9923 292.0
84.0592 303.0
84.126 257.0
84.1929 257.0
84.2597 270.0
84.3266 284.0
84.3934 289.0
84.4603 270.0
84.5271 304.0
84.5939 298.0
84.6608 267.0
84.7276 233.0
84.7945 271.0
84.8613 260.0
84.9282 276.0
84.995 300.0
85.0619 260.0
85.1287 269.0
85.1955 245.0
85.2624 237.0
85.3292 261.0
85.3961 269.0
85.4629 289.0
85.5298 255.0
85.5966 289.0
85.6635 266.0
85.7303 248.0
85.7972 257.0
85.864 284.0
85.9308 266.0
85.9977 288.0
86.0645 287.0
86.1314 255.0
86.1982 252.0
86.2651 260.0
86.3319 266.0
86.3988 276.0
86.4656 268.0
86.5324 254.0
86.5993 239.0
86.6661 254.0
86.733 233.0
86.7998 231.0
86.8667 252.0
86.9335 257.0
87.0004 250.0
87.0672 251.0
87.1341 264.0
87.2009 242.0
87.2677 241.0
87.3346 225.0
87.4014 223.0
87.4683 256.0
87.5351 237.0
87.602 264.0
87.6688 236.0
87.7357 223.0
87.8025 250.0
87.8693 241.0
87.9362 238.0
88.003 235.0
88.0699 232.0
88.1367 237.0
88.2036 246.0
88.2704 207.0
88.3373 212.0
88.4041 228.0
88.471 254.0
88.5378 247.0
88.6046 229.0
88.6715 248.0
88.7383 238.0
88.8052 268.0
88.872 212.0
88.9389 227.0
89.0057 243.0
89.0726 225.0
89.1394 211.0
89.2063 214.0
89.2731 253.0
89.3399 246.0
89.4068 247.0
89.4736 225.0
89.5405 199.0
89.6073 236.0
89.6742 226.0
89.741 225.0
89.8079 259.0
89.8747 217.0
89.9415 270.0