File: code/XRD_Analysis/External Sources/Fabian/SAPO-34/25012024_SAPO-34_SiAl_035_calc.xy
4.98146 1176.0
5.0483 1165.0
5.11515 1100.0
5.18199 1048.0
5.24884 1112.0
5.31568 1063.0
5.38253 1040.0
5.44937 1003.0
5.51622 934.0
5.58306 990.0
5.64991 984.0
5.71675 962.0
5.7836 949.0
5.85044 924.0
5.91729 913.0
5.98413 931.0
6.05098 913.0
6.11782 910.0
6.18467 819.0
6.25151 878.0
6.31836 899.0
6.3852 850.0
6.45205 769.0
6.51889 834.0
6.58574 828.0
6.65258 809.0
6.71943 795.0
6.78627 774.0
6.85312 787.0
6.91996 836.0
6.98681 786.0
7.05365 720.0
7.1205 779.0
7.18734 802.0
7.25419 797.0
7.32103 764.0
7.38788 766.0
7.45472 742.0
7.52157 781.0
7.58841 736.0
7.65526 731.0
7.7221 751.0
7.78895 672.0
7.85579 752.0
7.92264 664.0
7.98948 755.0
8.05633 677.0
8.12317 700.0
8.19002 700.0
8.25686 695.0
8.32371 681.0
8.39055 697.0
8.4574 650.0
8.52424 651.0
8.59109 715.0
8.65793 635.0
8.72478 685.0
8.79162 695.0
8.85847 629.0
8.92532 647.0
8.99216 701.0
9.05901 685.0
9.12585 737.0
9.1927 813.0
9.25954 991.0
9.32639 1394.0
9.39323 2402.0
9.46008 4150.0
9.52692 7270.0
9.59377 9842.0
9.66061 7079.0
9.72746 3678.0
9.7943 2114.0
9.86115 1627.0
9.92799 1552.0
9.99484 1305.0
10.0617 1225.0
10.1285 1090.0
10.1954 951.0
10.2622 886.0
10.3291 849.0
10.3959 842.0
10.4628 850.0
10.5296 845.0
10.5964 925.0
10.6633 924.0
10.7301 857.0
10.797 818.0
10.8638 755.0
10.9307 754.0
10.9975 726.0
11.0644 649.0
11.1312 703.0
11.198 650.0
11.2649 649.0
11.3317 625.0
11.3986 652.0
11.4654 605.0
11.5323 635.0
11.5991 611.0
11.666 587.0
11.7328 620.0
11.7997 685.0
11.8665 600.0
11.9333 591.0
12.0002 595.0
12.067 646.0
12.1339 617.0
12.2007 617.0
12.2676 619.0
12.3344 598.0
12.4013 607.0
12.4681 638.0
12.5349 635.0
12.6018 667.0
12.6686 748.0
12.7355 764.0
12.8023 1002.0
12.8692 1315.0
12.936 1941.0
13.0029 2452.0
13.0697 2238.0
13.1366 1667.0
13.2034 1188.0
13.2702 881.0
13.3371 789.0
13.4039 808.0
13.4708 738.0
13.5376 769.0
13.6045 794.0
13.6713 630.0
13.7382 594.0
13.805 649.0
13.8719 620.0
13.9387 612.0
14.0055 672.0
14.0724 662.0
14.1392 650.0
14.2061 612.0
14.2729 559.0
14.3398 561.0
14.4066 537.0
14.4735 545.0
14.5403 556.0
14.6071 545.0
14.674 537.0
14.7408 589.0
14.8077 538.0
14.8745 534.0
14.9414 563.0
15.0082 559.0
15.0751 581.0
15.1419 550.0
15.2088 584.0
15.2756 587.0
15.3424 639.0
15.4093 705.0
15.4761 713.0
15.543 782.0
15.6098 752.0
15.6767 711.0
15.7435 714.0
15.8104 716.0
15.8772 750.0
15.944 771.0
16.0109 969.0
16.0777 1279.0
16.1446 1575.0
16.2114 1542.0
16.2783 1140.0
16.3451 931.0
16.412 815.0
16.4788 740.0
16.5457 857.0
16.6125 795.0
16.6793 880.0
16.7462 966.0
16.813 1118.0
16.8799 1216.0
16.9467 1133.0
17.0136 1172.0
17.0804 1173.0
17.1473 1076.0
17.2141 1038.0
17.2809 1042.0
17.3478 1095.0
17.4146 956.0
17.4815 948.0
17.5483 896.0
17.6152 940.0
17.682 891.0
17.7489 981.0
17.8157 1180.0
17.8826 1200.0
17.9494 1096.0
18.0162 989.0
18.0831 920.0
18.1499 813.0
18.2168 856.0
18.2836 771.0
18.3505 737.0
18.4173 725.0
18.4842 773.0
18.551 741.0
18.6179 813.0
18.6847 767.0
18.7515 815.0
18.8184 744.0
18.8852 863.0
18.9521 877.0
19.0189 941.0
19.0858 1075.0
19.1526 1203.0
19.2195 1286.0
19.2863 1312.0
19.3531 1203.0
19.42 1142.0
19.4868 1110.0
19.5537 1010.0
19.6205 1091.0
19.6874 1089.0
19.7542 1089.0
19.8211 1063.0
19.8879 1052.0
19.9548 1107.0
20.0216 1090.0
20.0884 1071.0
20.1553 1205.0
20.2221 1091.0
20.289 1105.0
20.3558 1021.0
20.4227 1109.0
20.4895 1296.0
20.5564 1399.0
20.6232 1759.0
20.69 2350.0
20.7569 3213.0
20.8237 3490.0
20.8906 2936.0
20.9574 2255.0
21.0243 2019.0
21.0911 1661.0
21.158 1482.0
21.2248 1424.0
21.2917 1384.0
21.3585 1304.0
21.4253 1383.0
21.4922 1293.0
21.559 1183.0
21.6259 1131.0
21.6927 969.0
21.7596 973.0
21.8264 876.0
21.8933 800.0
21.9601 859.0
22.0269 930.0
22.0938 948.0
22.1606 980.0
22.2275 937.0
22.2943 945.0
22.3612 950.0
22.428 976.0
22.4949 994.0
22.5617 1060.0
22.6286 1062.0
22.6954 1003.0
22.7622 960.0
22.8291 1034.0
22.8959 1062.0
22.9628 1081.0
23.0296 1102.0
23.0965 1182.0
23.1633 1300.0
23.2302 1458.0
23.297 1471.0
23.3639 1308.0
23.4307 1273.0
23.4975 1210.0
23.5644 1232.0
23.6312 1290.0
23.6981 1224.0
23.7649 1285.0
23.8318 1439.0
23.8986 1413.0
23.9655 1600.0
24.0323 1507.0
24.0991 1634.0
24.166 1543.0
24.2328 1517.0
24.2997 1472.0
24.3665 1416.0
24.4334 1348.0
24.5002 1288.0
24.5671 1254.0
24.6339 1260.0
24.7008 1300.0
24.7676 1238.0
24.8344 1219.0
24.9013 1379.0
24.9681 1478.0
25.035 1599.0
25.1018 1646.0
25.1687 1465.0
25.2355 1427.0
25.3024 1378.0
25.3692 1384.0
25.436 1257.0
25.5029 1301.0
25.5697 1250.0
25.6366 1271.0
25.7034 1399.0
25.7703 1368.0
25.8371 1461.0
25.904 1491.0
25.9708 1588.0
26.0377 1798.0
26.1045 2013.0
26.1713 2129.0
26.2382 2062.0
26.305 1853.0
26.3719 1792.0
26.4387 1749.0
26.5056 1628.0
26.5724 1539.0
26.6393 1534.0
26.7061 1486.0
26.773 1339.0
26.8398 1330.0
26.9066 1232.0
26.9735 1213.0
27.0403 1256.0
27.1072 1229.0
27.174 1223.0
27.2409 1256.0
27.3077 1222.0
27.3746 1194.0
27.4414 1222.0
27.5082 1197.0
27.5751 1214.0
27.6419 1266.0
27.7088 1235.0
27.7756 1306.0
27.8425 1413.0
27.9093 1339.0
27.9762 1402.0
28.043 1337.0
28.1099 1380.0
28.1767 1279.0
28.2435 1403.0
28.3104 1406.0
28.3772 1324.0
28.4441 1357.0
28.5109 1326.0
28.5778 1302.0
28.6446 1255.0
28.7115 1245.0
28.7783 1245.0
28.8451 1307.0
28.912 1208.0
28.9788 1333.0
29.0457 1223.0
29.1125 1260.0
29.1794 1274.0
29.2462 1261.0
29.3131 1272.0
29.3799 1210.0
29.4468 1258.0
29.5136 1195.0
29.5804 1216.0
29.6473 1262.0
29.7141 1328.0
29.781 1424.0
29.8478 1408.0
29.9147 1393.0
29.9815 1437.0
30.0484 1455.0
30.1152 1512.0
30.182 1574.0
30.2489 1627.0
30.3157 1661.0
30.3826 1734.0
30.4494 1836.0
30.5163 1776.0
30.5831 1837.0
30.65 1865.0
30.7168 2019.0
30.7837 2378.0
30.8505 2724.0
30.9173 2913.0
30.9842 2854.0
31.051 2693.0
31.1179 2692.0
31.1847 2584.0
31.2516 2678.0
31.3184 2561.0
31.3853 2421.0
31.4521 2210.0
31.519 2136.0
31.5858 1954.0
31.6526 1887.0
31.7195 1860.0
31.7863 1792.0
31.8532 1749.0
31.92 1634.0
31.9869 1617.0
32.0537 1543.0
32.1206 1440.0
32.1874 1503.0
32.2542 1444.0
32.3211 1353.0
32.3879 1458.0
32.4548 1357.0
32.5216 1414.0
32.5885 1407.0
32.6553 1348.0
32.7222 1384.0
32.789 1343.0
32.8559 1377.0
32.9227 1299.0
32.9895 1247.0
33.0564 1214.0
33.1232 1165.0
33.1901 1110.0
33.2569 1136.0
33.3238 1047.0
33.3906 1072.0
33.4575 1029.0
33.5243 937.0
33.5911 1032.0
33.658 997.0
33.7248 998.0
33.7917 956.0
33.8585 969.0
33.9254 883.0
33.9922 904.0
34.0591 893.0
34.1259 891.0
34.1928 841.0
34.2596 891.0
34.3264 791.0
34.3933 862.0
34.4601 863.0
34.527 909.0
34.5938 841.0
34.6607 942.0
34.7275 882.0
34.7944 884.0
34.8612 908.0
34.928 892.0
34.9949 852.0
35.0617 842.0
35.1286 820.0
35.1954 809.0
35.2623 784.0
35.3291 769.0
35.396 728.0
35.4628 719.0
35.5297 706.0
35.5965 732.0
35.6633 669.0
35.7302 710.0
35.797 682.0
35.8639 690.0
35.9307 679.0
35.9976 663.0
36.0644 662.0
36.1313 703.0
36.1981 750.0
36.265 726.0
36.3318 689.0
36.3986 652.0
36.4655 645.0
36.5323 663.0
36.5992 625.0
36.666 645.0
36.7329 656.0
36.7997 654.0
36.8666 683.0
36.9334 605.0
37.0002 584.0
37.0671 568.0
37.1339 568.0
37.2008 528.0
37.2676 569.0
37.3345 580.0
37.4013 572.0
37.4682 563.0
37.535 507.0
37.6019 522.0
37.6687 529.0
37.7355 524.0
37.8024 552.0
37.8692 579.0
37.9361 518.0
38.0029 588.0
38.0698 547.0
38.1366 536.0
38.2035 540.0
38.2703 559.0
38.3371 529.0
38.404 556.0
38.4708 534.0
38.5377 537.0
38.6045 528.0
38.6714 569.0
38.7382 539.0
38.8051 564.0
38.8719 533.0
38.9388 576.0
39.0056 531.0
39.0724 574.0
39.1393 536.0
39.2061 537.0
39.273 539.0
39.3398 557.0
39.4067 591.0
39.4735 604.0
39.5404 582.0
39.6072 574.0
39.6741 616.0
39.7409 616.0
39.8077 566.0
39.8746 574.0
39.9414 579.0
40.0083 583.0
40.0751 616.0
40.142 621.0
40.2088 591.0
40.2757 586.0
40.3425 602.0
40.4093 589.0
40.4762 543.0
40.543 560.0
40.6099 541.0
40.6767 599.0
40.7436 540.0
40.8104 548.0
40.8773 582.0
40.9441 525.0
41.011 554.0
41.0778 551.0
41.1446 501.0
41.2115 579.0
41.2783 554.0
41.3452 591.0
41.412 578.0
41.4789 543.0
41.5457 573.0
41.6126 567.0
41.6794 548.0
41.7462 563.0
41.8131 575.0
41.8799 529.0
41.9468 567.0
42.0136 521.0
42.0805 556.0
42.1473 538.0
42.2142 561.0
42.281 553.0
42.3479 576.0
42.4147 524.0
42.4815 583.0
42.5484 522.0
42.6152 567.0
42.6821 555.0
42.7489 539.0
42.8158 597.0
42.8826 550.0
42.9495 620.0
43.0163 571.0
43.0831 587.0
43.15 607.0
43.2168 605.0
43.2837 623.0
43.3505 547.0
43.4174 617.0
43.4842 594.0
43.5511 579.0
43.6179 598.0
43.6848 586.0
43.7516 586.0
43.8184 533.0
43.8853 576.0
43.9521 568.0
44.019 560.0
44.0858 536.0
44.1527 511.0
44.2195 554.0
44.2864 544.0
44.3532 540.0
44.4201 578.0
44.4869 558.0
44.5537 519.0
44.6206 545.0
44.6874 556.0
44.7543 526.0
44.8211 533.0
44.888 518.0
44.9548 517.0
45.0217 527.0
45.0885 522.0
45.1553 527.0
45.2222 518.0
45.289 505.0
45.3559 565.0
45.4227 506.0
45.4896 497.0
45.5564 502.0
45.6233 498.0
45.6901 532.0
45.757 481.0
45.8238 490.0
45.8906 528.0
45.9575 495.0
46.0243 526.0
46.0912 491.0
46.158 516.0
46.2249 534.0
46.2917 506.0
46.3586 524.0
46.4254 487.0
46.4922 514.0
46.5591 494.0
46.6259 523.0
46.6928 471.0
46.7596 548.0
46.8265 509.0
46.8933 572.0
46.9602 538.0
47.027 539.0
47.0939 578.0
47.1607 545.0
47.2275 516.0
47.2944 511.0
47.3612 547.0
47.4281 558.0
47.4949 572.0
47.5618 529.0
47.6286 548.0
47.6955 538.0
47.7623 513.0
47.8291 516.0
47.896 526.0
47.9628 567.0
48.0297 535.0
48.0965 557.0
48.1634 554.0
48.2302 625.0
48.2971 541.0
48.3639 587.0
48.4308 537.0
48.4976 552.0
48.5644 541.0
48.6313 556.0
48.6981 549.0
48.765 597.0
48.8318 529.0
48.8987 552.0
48.9655 543.0
49.0324 620.0
49.0992 654.0
49.1661 657.0
49.2329 689.0
49.2997 723.0
49.3666 726.0
49.4334 705.0
49.5003 672.0
49.5671 703.0
49.634 709.0
49.7008 695.0
49.7677 681.0
49.8345 641.0
49.9013 666.0
49.9682 653.0
50.035 620.0
50.1019 591.0
50.1687 630.0
50.2356 587.0
50.3024 582.0
50.3693 602.0
50.4361 623.0
50.503 613.0
50.5698 579.0
50.6366 585.0
50.7035 575.0
50.7703 595.0
50.8372 615.0
50.904 573.0
50.9709 654.0
51.0377 629.0
51.1046 613.0
51.1714 697.0
51.2382 634.0
51.3051 625.0
51.3719 630.0
51.4388 576.0
51.5056 623.0
51.5725 616.0
51.6393 621.0
51.7062 598.0
51.773 581.0
51.8399 565.0
51.9067 594.0
51.9735 629.0
52.0404 595.0
52.1072 628.0
52.1741 612.0
52.2409 568.0
52.3078 594.0
52.3746 587.0
52.4415 612.0
52.5083 586.0
52.5751 590.0
52.642 550.0
52.7088 600.0
52.7757 592.0
52.8425 600.0
52.9094 621.0
52.9762 581.0
53.0431 582.0
53.1099 529.0
53.1768 586.0
53.2436 566.0
53.3104 572.0
53.3773 570.0
53.4441 591.0
53.511 576.0
53.5778 571.0
53.6447 589.0
53.7115 614.0
53.7784 554.0
53.8452 607.0
53.9121 606.0
53.9789 601.0
54.0457 557.0
54.1126 552.0
54.1794 521.0
54.2463 600.0
54.3131 594.0
54.38 597.0
54.4468 528.0
54.5137 539.0
54.5805 544.0
54.6473 568.0
54.7142 523.0
54.781 551.0
54.8479 565.0
54.9147 496.0
54.9816 522.0
55.0484 557.0
55.1153 525.0
55.1821 557.0
55.249 531.0
55.3158 545.0
55.3826 524.0
55.4495 527.0
55.5163 533.0
55.5832 542.0
55.65 582.0
55.7169 621.0
55.7837 554.0
55.8506 528.0
55.9174 536.0
55.9842 552.0
56.0511 491.0
56.1179 479.0
56.1848 514.0
56.2516 502.0
56.3185 508.0
56.3853 513.0
56.4522 528.0
56.519 533.0
56.5859 529.0
56.6527 550.0
56.7195 535.0
56.7864 557.0
56.8532 510.0
56.9201 587.0
56.9869 492.0
57.0538 500.0
57.1206 532.0
57.1875 503.0
57.2543 564.0
57.3212 479.0
57.388 492.0
57.4548 461.0
57.5217 493.0
57.5885 478.0
57.6554 481.0
57.7222 507.0
57.7891 463.0
57.8559 453.0
57.9228 475.0
57.9896 473.0
58.0564 465.0
58.1233 479.0
58.1901 486.0
58.257 481.0
58.3238 455.0
58.3907 506.0
58.4575 490.0
58.5244 459.0
58.5912 450.0
58.6581 458.0
58.7249 466.0
58.7917 435.0
58.8586 446.0
58.9254 455.0
58.9923 450.0
59.0591 486.0
59.126 466.0
59.1928 439.0
59.2597 476.0
59.3265 434.0
59.3933 464.0
59.4602 458.0
59.527 474.0
59.5939 527.0
59.6607 450.0
59.7276 475.0
59.7944 466.0
59.8613 490.0
59.9281 514.0
59.995 508.0
60.0618 502.0
60.1286 564.0
60.1955 482.0
60.2623 487.0
60.3292 465.0
60.396 500.0
60.4629 463.0
60.5297 458.0
60.5966 472.0
60.6634 481.0
60.7302 513.0
60.7971 489.0
60.8639 510.0
60.9308 471.0
60.9976 492.0
61.0645 463.0
61.1313 547.0
61.1982 507.0
61.265 470.0
61.3319 474.0
61.3987 481.0
61.4655 480.0
61.5324 459.0
61.5992 471.0
61.6661 467.0
61.7329 498.0
61.7998 487.0
61.8666 493.0
61.9335 509.0
62.0003 491.0
62.0672 455.0
62.134 463.0
62.2008 477.0
62.2677 512.0
62.3345 501.0
62.4014 495.0
62.4682 466.0
62.5351 495.0
62.6019 457.0
62.6688 467.0
62.7356 513.0
62.8024 460.0
62.8693 407.0
62.9361 451.0
63.003 454.0
63.0698 433.0
63.1367 427.0
63.2035 428.0
63.2704 463.0
63.3372 442.0
63.4041 459.0
63.4709 459.0
63.5377 439.0
63.6046 419.0
63.6714 478.0
63.7383 436.0
63.8051 460.0
63.872 431.0
63.9388 449.0
64.0057 410.0
64.0725 480.0
64.1393 395.0
64.2062 417.0
64.273 433.0
64.3399 459.0
64.4067 442.0
64.4736 451.0
64.5404 435.0
64.6073 446.0
64.6741 432.0
64.741 461.0
64.8078 431.0
64.8746 444.0
64.9415 410.0
65.0083 436.0
65.0752 439.0
65.142 446.0
65.2089 418.0
65.2757 447.0
65.3426 448.0
65.4094 412.0
65.4762 456.0
65.5431 476.0
65.6099 425.0
65.6768 397.0
65.7436 435.0
65.8105 430.0
65.8773 401.0
65.9442 438.0
66.011 428.0
66.0779 395.0
66.1447 465.0
66.2115 433.0
66.2784 422.0
66.3452 451.0
66.4121 412.0
66.4789 444.0
66.5458 414.0
66.6126 447.0
66.6795 425.0
66.7463 508.0
66.8132 527.0
66.88 404.0
66.9468 458.0
67.0137 420.0
67.0805 486.0
67.1474 440.0
67.2142 458.0
67.2811 471.0
67.3479 449.0
67.4148 456.0
67.4816 488.0
67.5484 426.0
67.6153 462.0
67.6821 473.0
67.749 426.0
67.8158 458.0
67.8827 436.0
67.9495 423.0
68.0164 443.0
68.0832 442.0
68.1501 469.0
68.2169 428.0
68.2837 436.0
68.3506 458.0
68.4174 430.0
68.4843 460.0
68.5511 448.0
68.618 429.0
68.6848 440.0
68.7517 441.0
68.8185 455.0
68.8853 422.0
68.9522 433.0
69.019 446.0
69.0859 473.0
69.1527 425.0
69.2196 459.0
69.2864 463.0
69.3533 463.0
69.4201 380.0
69.487 417.0
69.5538 430.0
69.6206 449.0
69.6875 422.0
69.7543 453.0
69.8212 466.0
69.888 425.0
69.9549 458.0
70.0217 445.0
70.0886 429.0
70.1554 427.0
70.2222 439.0
70.2891 438.0
70.3559 442.0
70.4228 410.0
70.4896 402.0
70.5565 448.0
70.6233 398.0
70.6902 435.0
70.757 453.0
70.8239 418.0
70.8907 403.0
70.9575 412.0
71.0244 406.0
71.0912 418.0
71.1581 430.0
71.2249 429.0
71.2918 422.0
71.3586 409.0
71.4255 427.0
71.4923 429.0
71.5592 433.0
71.626 381.0
71.6928 456.0
71.7597 404.0
71.8265 429.0
71.8934 440.0
71.9602 424.0
72.0271 427.0
72.0939 445.0
72.1608 404.0
72.2276 417.0
72.2944 408.0
72.3613 463.0
72.4281 400.0
72.495 453.0
72.5618 416.0
72.6287 430.0
72.6955 404.0
72.7624 461.0
72.8292 391.0
72.8961 433.0
72.9629 441.0
73.0297 443.0
73.0966 417.0
73.1634 450.0
73.2303 435.0
73.2971 407.0
73.364 399.0
73.4308 400.0
73.4977 409.0
73.5645 433.0
73.6313 420.0
73.6982 428.0
73.765 448.0
73.8319 412.0
73.8987 407.0
73.9656 446.0
74.0324 384.0
74.0993 413.0
74.1661 410.0
74.233 364.0
74.2998 369.0
74.3666 393.0
74.4335 399.0
74.5003 441.0
74.5672 392.0
74.634 401.0
74.7009 422.0
74.7677 365.0
74.8346 429.0
74.9014 364.0
74.9683 370.0
75.0351 375.0
75.1019 367.0
75.1688 399.0
75.2356 380.0
75.3025 386.0
75.3693 401.0
75.4362 369.0
75.503 380.0
75.5699 352.0
75.6367 402.0
75.7035 362.0
75.7704 399.0
75.8372 350.0
75.9041 381.0
75.9709 402.0
76.0378 387.0
76.1046 393.0
76.1715 365.0
76.2383 409.0
76.3052 393.0
76.372 391.0
76.4388 387.0
76.5057 419.0
76.5725 400.0
76.6394 324.0
76.7062 352.0
76.7731 380.0
76.8399 366.0
76.9068 365.0
76.9736 321.0
77.0404 342.0
77.1073 385.0
77.1741 349.0
77.241 347.0
77.3078 335.0
77.3747 389.0
77.4415 361.0
77.5084 360.0
77.5752 363.0
77.6421 342.0
77.7089 326.0
77.7757 349.0
77.8426 370.0
77.9094 334.0
77.9763 342.0
78.0431 397.0
78.11 342.0
78.1768 334.0
78.2437 345.0
78.3105 355.0
78.3773 360.0
78.4442 313.0
78.511 355.0
78.5779 320.0
78.6447 369.0
78.7116 350.0
78.7784 371.0
78.8453 324.0
78.9121 335.0
78.979 354.0
79.0458 346.0
79.1126 324.0
79.1795 326.0
79.2463 358.0
79.3132 322.0
79.38 313.0
79.4469 360.0
79.5137 350.0
79.5806 358.0
79.6474 320.0
79.7143 365.0
79.7811 330.0
79.8479 304.0
79.9148 333.0
79.9816 314.0
80.0485 288.0
80.1153 320.0
80.1822 321.0
80.249 355.0
80.3159 346.0
80.3827 324.0
80.4495 345.0
80.5164 334.0
80.5832 316.0
80.6501 325.0
80.7169 344.0
80.7838 317.0
80.8506 297.0
80.9175 329.0
80.9843 306.0
81.0512 307.0
81.118 298.0
81.1848 314.0
81.2517 334.0
81.3185 306.0
81.3854 289.0
81.4522 290.0
81.5191 315.0
81.5859 317.0
81.6528 317.0
81.7196 330.0
81.7864 306.0
81.8533 316.0
81.9201 345.0
81.987 333.0
82.0538 310.0
82.1207 294.0
82.1875 304.0
82.2544 306.0
82.3212 300.0
82.3881 276.0
82.4549 313.0
82.5217 258.0
82.5886 301.0
82.6554 311.0
82.7223 314.0
82.7891 304.0
82.856 279.0
82.9228 290.0
82.9897 290.0
83.0565 270.0
83.1233 291.0
83.1902 298.0
83.257 295.0
83.3239 278.0
83.3907 292.0
83.4576 268.0
83.5244 263.0
83.5913 262.0
83.6581 272.0
83.725 284.0
83.7918 286.0
83.8586 277.0
83.9255 256.0
83.9923 264.0
84.0592 268.0
84.126 274.0
84.1929 282.0
84.2597 254.0
84.3266 267.0
84.3934 282.0
84.4603 276.0
84.5271 261.0
84.5939 292.0
84.6608 239.0
84.7276 297.0
84.7945 274.0
84.8613 277.0
84.9282 259.0
84.995 275.0
85.0619 273.0
85.1287 268.0
85.1955 266.0
85.2624 247.0
85.3292 227.0
85.3961 258.0
85.4629 228.0
85.5298 261.0
85.5966 254.0
85.6635 257.0
85.7303 260.0
85.7972 252.0
85.864 240.0
85.9308 252.0
85.9977 231.0
86.0645 259.0
86.1314 270.0
86.1982 280.0
86.2651 245.0
86.3319 285.0
86.3988 262.0
86.4656 255.0
86.5324 245.0
86.5993 232.0
86.6661 262.0
86.733 256.0
86.7998 251.0
86.8667 246.0
86.9335 230.0
87.0004 217.0
87.0672 253.0
87.1341 251.0
87.2009 240.0
87.2677 243.0
87.3346 236.0
87.4014 246.0
87.4683 221.0
87.5351 279.0
87.602 220.0
87.6688 233.0
87.7357 248.0
87.8025 241.0
87.8693 248.0
87.9362 213.0
88.003 230.0
88.0699 263.0
88.1367 226.0
88.2036 233.0
88.2704 245.0
88.3373 222.0
88.4041 247.0
88.471 228.0
88.5378 226.0
88.6046 230.0
88.6715 232.0
88.7383 194.0
88.8052 201.0
88.872 220.0
88.9389 207.0
89.0057 236.0
89.0726 240.0
89.1394 237.0
89.2063 248.0
89.2731 241.0
89.3399 240.0
89.4068 209.0
89.4736 244.0
89.5405 219.0
89.6073 225.0
89.6742 221.0
89.741 266.0
89.8079 208.0
89.8747 204.0
89.9415 206.0