File: code/XRD_Analysis/External Sources/Fabian/SAPO-34/25012024_SAPO-34_SiAl_04_calc.xy
4.98146 1090.0
5.0483 1082.0
5.11515 1036.0
5.18199 1006.0
5.24884 1072.0
5.31568 1049.0
5.38253 1020.0
5.44937 978.0
5.51622 1002.0
5.58306 944.0
5.64991 973.0
5.71675 930.0
5.7836 933.0
5.85044 941.0
5.91729 916.0
5.98413 920.0
6.05098 866.0
6.11782 903.0
6.18467 903.0
6.25151 853.0
6.31836 787.0
6.3852 818.0
6.45205 866.0
6.51889 795.0
6.58574 803.0
6.65258 839.0
6.71943 806.0
6.78627 737.0
6.85312 798.0
6.91996 834.0
6.98681 807.0
7.05365 782.0
7.1205 781.0
7.18734 842.0
7.25419 743.0
7.32103 740.0
7.38788 717.0
7.45472 781.0
7.52157 775.0
7.58841 744.0
7.65526 747.0
7.7221 722.0
7.78895 769.0
7.85579 724.0
7.92264 726.0
7.98948 682.0
8.05633 684.0
8.12317 737.0
8.19002 695.0
8.25686 713.0
8.32371 722.0
8.39055 722.0
8.4574 639.0
8.52424 708.0
8.59109 734.0
8.65793 682.0
8.72478 719.0
8.79162 704.0
8.85847 696.0
8.92532 724.0
8.99216 705.0
9.05901 745.0
9.12585 817.0
9.1927 913.0
9.25954 1059.0
9.32639 1440.0
9.39323 2539.0
9.46008 5064.0
9.52692 10985.0
9.59377 13762.0
9.66061 7917.0
9.72746 3276.0
9.7943 2034.0
9.86115 1449.0
9.92799 1398.0
9.99484 1337.0
10.0617 1160.0
10.1285 1156.0
10.1954 1025.0
10.2622 969.0
10.3291 913.0
10.3959 869.0
10.4628 884.0
10.5296 953.0
10.5964 963.0
10.6633 924.0
10.7301 960.0
10.797 813.0
10.8638 820.0
10.9307 800.0
10.9975 795.0
11.0644 756.0
11.1312 755.0
11.198 716.0
11.2649 747.0
11.3317 674.0
11.3986 696.0
11.4654 738.0
11.5323 701.0
11.5991 638.0
11.666 678.0
11.7328 677.0
11.7997 689.0
11.8665 634.0
11.9333 679.0
12.0002 648.0
12.067 672.0
12.1339 659.0
12.2007 680.0
12.2676 653.0
12.3344 645.0
12.4013 706.0
12.4681 696.0
12.5349 703.0
12.6018 736.0
12.6686 768.0
12.7355 956.0
12.8023 1192.0
12.8692 1750.0
12.936 2695.0
13.0029 3244.0
13.0697 2370.0
13.1366 1543.0
13.2034 1095.0
13.2702 872.0
13.3371 844.0
13.4039 795.0
13.4708 873.0
13.5376 854.0
13.6045 804.0
13.6713 754.0
13.7382 677.0
13.805 683.0
13.8719 701.0
13.9387 648.0
14.0055 752.0
14.0724 810.0
14.1392 742.0
14.2061 651.0
14.2729 632.0
14.3398 634.0
14.4066 628.0
14.4735 615.0
14.5403 607.0
14.6071 576.0
14.674 599.0
14.7408 603.0
14.8077 588.0
14.8745 592.0
14.9414 607.0
15.0082 613.0
15.0751 588.0
15.1419 575.0
15.2088 610.0
15.2756 643.0
15.3424 651.0
15.4093 753.0
15.4761 774.0
15.543 786.0
15.6098 761.0
15.6767 742.0
15.7435 756.0
15.8104 790.0
15.8772 803.0
15.944 976.0
16.0109 1090.0
16.0777 1627.0
16.1446 2161.0
16.2114 1974.0
16.2783 1303.0
16.3451 1022.0
16.412 981.0
16.4788 908.0
16.5457 868.0
16.6125 889.0
16.6793 914.0
16.7462 1029.0
16.813 1111.0
16.8799 1136.0
16.9467 1237.0
17.0136 1390.0
17.0804 1287.0
17.1473 1275.0
17.2141 1177.0
17.2809 1185.0
17.3478 1118.0
17.4146 1034.0
17.4815 1114.0
17.5483 1022.0
17.6152 1063.0
17.682 986.0
17.7489 1052.0
17.8157 1281.0
17.8826 1344.0
17.9494 1319.0
18.0162 1200.0
18.0831 1116.0
18.1499 943.0
18.2168 916.0
18.2836 871.0
18.3505 895.0
18.4173 880.0
18.4842 846.0
18.551 848.0
18.6179 856.0
18.6847 830.0
18.7515 913.0
18.8184 875.0
18.8852 903.0
18.9521 985.0
19.0189 1032.0
19.0858 1245.0
19.1526 1445.0
19.2195 1426.0
19.2863 1403.0
19.3531 1243.0
19.42 1196.0
19.4868 1164.0
19.5537 1096.0
19.6205 1021.0
19.6874 1154.0
19.7542 1191.0
19.8211 1142.0
19.8879 1212.0
19.9548 1116.0
20.0216 1241.0
20.0884 1193.0
20.1553 1133.0
20.2221 1198.0
20.289 1222.0
20.3558 1179.0
20.4227 1255.0
20.4895 1404.0
20.5564 1584.0
20.6232 1983.0
20.69 2961.0
20.7569 3960.0
20.8237 4151.0
20.8906 3056.0
20.9574 2234.0
21.0243 1722.0
21.0911 1634.0
21.158 1540.0
21.2248 1424.0
21.2917 1499.0
21.3585 1431.0
21.4253 1541.0
21.4922 1507.0
21.559 1404.0
21.6259 1190.0
21.6927 1154.0
21.7596 1043.0
21.8264 977.0
21.8933 917.0
21.9601 907.0
22.0269 885.0
22.0938 1020.0
22.1606 1048.0
22.2275 1024.0
22.2943 1071.0
22.3612 1016.0
22.428 997.0
22.4949 1081.0
22.5617 1068.0
22.6286 1156.0
22.6954 1146.0
22.7622 1158.0
22.8291 1106.0
22.8959 1075.0
22.9628 1095.0
23.0296 1088.0
23.0965 1204.0
23.1633 1321.0
23.2302 1502.0
23.297 1573.0
23.3639 1509.0
23.4307 1268.0
23.4975 1279.0
23.5644 1240.0
23.6312 1269.0
23.6981 1256.0
23.7649 1394.0
23.8318 1454.0
23.8986 1473.0
23.9655 1597.0
24.0323 1613.0
24.0991 1702.0
24.166 1731.0
24.2328 1638.0
24.2997 1644.0
24.3665 1543.0
24.4334 1469.0
24.5002 1438.0
24.5671 1457.0
24.6339 1411.0
24.7008 1368.0
24.7676 1297.0
24.8344 1333.0
24.9013 1392.0
24.9681 1536.0
25.035 1629.0
25.1018 1797.0
25.1687 1716.0
25.2355 1727.0
25.3024 1628.0
25.3692 1464.0
25.436 1438.0
25.5029 1456.0
25.5697 1396.0
25.6366 1375.0
25.7034 1403.0
25.7703 1539.0
25.8371 1477.0
25.904 1633.0
25.9708 1816.0
26.0377 2084.0
26.1045 2341.0
26.1713 2446.0
26.2382 2284.0
26.305 1986.0
26.3719 1787.0
26.4387 1788.0
26.5056 1599.0
26.5724 1596.0
26.6393 1564.0
26.7061 1512.0
26.773 1481.0
26.8398 1403.0
26.9066 1369.0
26.9735 1380.0
27.0403 1393.0
27.1072 1321.0
27.174 1293.0
27.2409 1210.0
27.3077 1245.0
27.3746 1276.0
27.4414 1236.0
27.5082 1252.0
27.5751 1269.0
27.6419 1294.0
27.7088 1333.0
27.7756 1379.0
27.8425 1410.0
27.9093 1385.0
27.9762 1450.0
28.043 1413.0
28.1099 1407.0
28.1767 1449.0
28.2435 1466.0
28.3104 1443.0
28.3772 1553.0
28.4441 1443.0
28.5109 1428.0
28.5778 1391.0
28.6446 1340.0
28.7115 1360.0
28.7783 1268.0
28.8451 1336.0
28.912 1305.0
28.9788 1377.0
29.0457 1315.0
29.1125 1286.0
29.1794 1274.0
29.2462 1245.0
29.3131 1273.0
29.3799 1256.0
29.4468 1276.0
29.5136 1298.0
29.5804 1330.0
29.6473 1337.0
29.7141 1392.0
29.781 1387.0
29.8478 1516.0
29.9147 1463.0
29.9815 1539.0
30.0484 1529.0
30.1152 1597.0
30.182 1653.0
30.2489 1715.0
30.3157 1658.0
30.3826 1806.0
30.4494 1796.0
30.5163 1924.0
30.5831 1834.0
30.65 2046.0
30.7168 2162.0
30.7837 2441.0
30.8505 2821.0
30.9173 3011.0
30.9842 2916.0
31.051 2761.0
31.1179 2661.0
31.1847 2796.0
31.2516 2835.0
31.3184 2859.0
31.3853 2624.0
31.4521 2315.0
31.519 2102.0
31.5858 2039.0
31.6526 1941.0
31.7195 1767.0
31.7863 1803.0
31.8532 1681.0
31.92 1640.0
31.9869 1615.0
32.0537 1584.0
32.1206 1469.0
32.1874 1509.0
32.2542 1384.0
32.3211 1412.0
32.3879 1345.0
32.4548 1375.0
32.5216 1414.0
32.5885 1407.0
32.6553 1450.0
32.7222 1379.0
32.789 1393.0
32.8559 1318.0
32.9227 1320.0
32.9895 1237.0
33.0564 1279.0
33.1232 1288.0
33.1901 1135.0
33.2569 1093.0
33.3238 1119.0
33.3906 1043.0
33.4575 1082.0
33.5243 1057.0
33.5911 1081.0
33.658 1023.0
33.7248 985.0
33.7917 995.0
33.8585 1007.0
33.9254 946.0
33.9922 963.0
34.0591 967.0
34.1259 877.0
34.1928 926.0
34.2596 933.0
34.3264 845.0
34.3933 866.0
34.4601 853.0
34.527 862.0
34.5938 911.0
34.6607 894.0
34.7275 913.0
34.7944 958.0
34.8612 948.0
34.928 939.0
34.9949 818.0
35.0617 884.0
35.1286 841.0
35.1954 866.0
35.2623 785.0
35.3291 773.0
35.396 808.0
35.4628 735.0
35.5297 722.0
35.5965 766.0
35.6633 720.0
35.7302 683.0
35.797 710.0
35.8639 695.0
35.9307 717.0
35.9976 762.0
36.0644 739.0
36.1313 698.0
36.1981 707.0
36.265 762.0
36.3318 774.0
36.3986 744.0
36.4655 725.0
36.5323 736.0
36.5992 654.0
36.666 677.0
36.7329 696.0
36.7997 663.0
36.8666 676.0
36.9334 637.0
37.0002 609.0
37.0671 600.0
37.1339 614.0
37.2008 585.0
37.2676 607.0
37.3345 618.0
37.4013 578.0
37.4682 605.0
37.535 628.0
37.6019 560.0
37.6687 615.0
37.7355 604.0
37.8024 578.0
37.8692 524.0
37.9361 589.0
38.0029 568.0
38.0698 559.0
38.1366 572.0
38.2035 552.0
38.2703 563.0
38.3371 588.0
38.404 592.0
38.4708 565.0
38.5377 535.0
38.6045 556.0
38.6714 516.0
38.7382 561.0
38.8051 560.0
38.8719 590.0
38.9388 563.0
39.0056 563.0
39.0724 628.0
39.1393 553.0
39.2061 589.0
39.273 580.0
39.3398 590.0
39.4067 571.0
39.4735 625.0
39.5404 647.0
39.6072 622.0
39.6741 583.0
39.7409 609.0
39.8077 627.0
39.8746 553.0
39.9414 626.0
40.0083 590.0
40.0751 618.0
40.142 595.0
40.2088 657.0
40.2757 563.0
40.3425 619.0
40.4093 560.0
40.4762 531.0
40.543 635.0
40.6099 579.0
40.6767 573.0
40.7436 596.0
40.8104 632.0
40.8773 565.0
40.9441 583.0
41.011 550.0
41.0778 564.0
41.1446 582.0
41.2115 565.0
41.2783 600.0
41.3452 594.0
41.412 594.0
41.4789 594.0
41.5457 603.0
41.6126 547.0
41.6794 552.0
41.7462 555.0
41.8131 542.0
41.8799 646.0
41.9468 597.0
42.0136 579.0
42.0805 579.0
42.1473 552.0
42.2142 574.0
42.281 560.0
42.3479 600.0
42.4147 553.0
42.4815 550.0
42.5484 547.0
42.6152 586.0
42.6821 603.0
42.7489 581.0
42.8158 601.0
42.8826 557.0
42.9495 597.0
43.0163 619.0
43.0831 586.0
43.15 617.0
43.2168 627.0
43.2837 663.0
43.3505 638.0
43.4174 622.0
43.4842 650.0
43.5511 602.0
43.6179 585.0
43.6848 595.0
43.7516 610.0
43.8184 597.0
43.8853 603.0
43.9521 622.0
44.019 576.0
44.0858 552.0
44.1527 534.0
44.2195 575.0
44.2864 559.0
44.3532 535.0
44.4201 578.0
44.4869 542.0
44.5537 532.0
44.6206 570.0
44.6874 552.0
44.7543 538.0
44.8211 570.0
44.888 553.0
44.9548 540.0
45.0217 549.0
45.0885 604.0
45.1553 545.0
45.2222 525.0
45.289 558.0
45.3559 541.0
45.4227 545.0
45.4896 507.0
45.5564 549.0
45.6233 531.0
45.6901 529.0
45.757 509.0
45.8238 523.0
45.8906 506.0
45.9575 505.0
46.0243 519.0
46.0912 511.0
46.158 510.0
46.2249 540.0
46.2917 518.0
46.3586 513.0
46.4254 522.0
46.4922 536.0
46.5591 503.0
46.6259 523.0
46.6928 557.0
46.7596 544.0
46.8265 525.0
46.8933 599.0
46.9602 567.0
47.027 524.0
47.0939 555.0
47.1607 541.0
47.2275 555.0
47.2944 560.0
47.3612 552.0
47.4281 570.0
47.4949 574.0
47.5618 550.0
47.6286 578.0
47.6955 551.0
47.7623 563.0
47.8291 519.0
47.896 575.0
47.9628 545.0
48.0297 541.0
48.0965 572.0
48.1634 561.0
48.2302 567.0
48.2971 597.0
48.3639 554.0
48.4308 556.0
48.4976 528.0
48.5644 601.0
48.6313 567.0
48.6981 533.0
48.765 573.0
48.8318 556.0
48.8987 566.0
48.9655 601.0
49.0324 610.0
49.0992 698.0
49.1661 664.0
49.2329 692.0
49.2997 774.0
49.3666 708.0
49.4334 659.0
49.5003 714.0
49.5671 729.0
49.634 711.0
49.7008 747.0
49.7677 680.0
49.8345 646.0
49.9013 632.0
49.9682 637.0
50.035 643.0
50.1019 561.0
50.1687 657.0
50.2356 664.0
50.3024 609.0
50.3693 595.0
50.4361 566.0
50.503 658.0
50.5698 576.0
50.6366 644.0
50.7035 597.0
50.7703 603.0
50.8372 628.0
50.904 616.0
50.9709 602.0
51.0377 681.0
51.1046 697.0
51.1714 650.0
51.2382 629.0
51.3051 625.0
51.3719 589.0
51.4388 658.0
51.5056 614.0
51.5725 612.0
51.6393 610.0
51.7062 637.0
51.773 597.0
51.8399 554.0
51.9067 649.0
51.9735 618.0
52.0404 612.0
52.1072 560.0
52.1741 563.0
52.2409 607.0
52.3078 573.0
52.3746 586.0
52.4415 563.0
52.5083 614.0
52.5751 584.0
52.642 575.0
52.7088 581.0
52.7757 612.0
52.8425 595.0
52.9094 592.0
52.9762 551.0
53.0431 599.0
53.1099 543.0
53.1768 573.0
53.2436 589.0
53.3104 583.0
53.3773 599.0
53.4441 559.0
53.511 611.0
53.5778 571.0
53.6447 620.0
53.7115 609.0
53.7784 617.0
53.8452 599.0
53.9121 620.0
53.9789 644.0
54.0457 523.0
54.1126 626.0
54.1794 532.0
54.2463 585.0
54.3131 557.0
54.38 560.0
54.4468 568.0
54.5137 598.0
54.5805 600.0
54.6473 525.0
54.7142 588.0
54.781 598.0
54.8479 555.0
54.9147 575.0
54.9816 565.0
55.0484 532.0
55.1153 602.0
55.1821 557.0
55.249 553.0
55.3158 582.0
55.3826 547.0
55.4495 571.0
55.5163 552.0
55.5832 589.0
55.65 550.0
55.7169 581.0
55.7837 579.0
55.8506 522.0
55.9174 609.0
55.9842 592.0
56.0511 561.0
56.1179 556.0
56.1848 513.0
56.2516 573.0
56.3185 523.0
56.3853 508.0
56.4522 563.0
56.519 557.0
56.5859 548.0
56.6527 538.0
56.7195 554.0
56.7864 527.0
56.8532 547.0
56.9201 527.0
56.9869 517.0
57.0538 534.0
57.1206 534.0
57.1875 536.0
57.2543 463.0
57.3212 482.0
57.388 491.0
57.4548 519.0
57.5217 461.0
57.5885 459.0
57.6554 479.0
57.7222 526.0
57.7891 496.0
57.8559 480.0
57.9228 474.0
57.9896 472.0
58.0564 451.0
58.1233 485.0
58.1901 460.0
58.257 506.0
58.3238 457.0
58.3907 501.0
58.4575 497.0
58.5244 443.0
58.5912 446.0
58.6581 454.0
58.7249 460.0
58.7917 470.0
58.8586 501.0
58.9254 465.0
58.9923 454.0
59.0591 453.0
59.126 469.0
59.1928 494.0
59.2597 482.0
59.3265 481.0
59.3933 433.0
59.4602 491.0
59.527 487.0
59.5939 472.0
59.6607 497.0
59.7276 485.0
59.7944 505.0
59.8613 476.0
59.9281 523.0
59.995 512.0
60.0618 510.0
60.1286 492.0
60.1955 471.0
60.2623 500.0
60.3292 486.0
60.396 553.0
60.4629 487.0
60.5297 508.0
60.5966 476.0
60.6634 518.0
60.7302 491.0
60.7971 512.0
60.8639 525.0
60.9308 482.0
60.9976 473.0
61.0645 529.0
61.1313 462.0
61.1982 477.0
61.265 523.0
61.3319 459.0
61.3987 506.0
61.4655 498.0
61.5324 481.0
61.5992 518.0
61.6661 471.0
61.7329 483.0
61.7998 487.0
61.8666 517.0
61.9335 480.0
62.0003 467.0
62.0672 480.0
62.134 495.0
62.2008 431.0
62.2677 469.0
62.3345 463.0
62.4014 493.0
62.4682 485.0
62.5351 457.0
62.6019 477.0
62.6688 459.0
62.7356 444.0
62.8024 480.0
62.8693 454.0
62.9361 474.0
63.003 464.0
63.0698 442.0
63.1367 458.0
63.2035 466.0
63.2704 470.0
63.3372 455.0
63.4041 453.0
63.4709 495.0
63.5377 461.0
63.6046 494.0
63.6714 464.0
63.7383 442.0
63.8051 480.0
63.872 430.0
63.9388 414.0
64.0057 433.0
64.0725 494.0
64.1393 480.0
64.2062 447.0
64.273 483.0
64.3399 413.0
64.4067 439.0
64.4736 448.0
64.5404 436.0
64.6073 428.0
64.6741 459.0
64.741 435.0
64.8078 444.0
64.8746 436.0
64.9415 425.0
65.0083 424.0
65.0752 509.0
65.142 433.0
65.2089 434.0
65.2757 497.0
65.3426 430.0
65.4094 456.0
65.4762 463.0
65.5431 404.0
65.6099 430.0
65.6768 424.0
65.7436 465.0
65.8105 411.0
65.8773 429.0
65.9442 435.0
66.011 430.0
66.0779 444.0
66.1447 482.0
66.2115 450.0
66.2784 478.0
66.3452 458.0
66.4121 433.0
66.4789 469.0
66.5458 428.0
66.6126 487.0
66.6795 436.0
66.7463 465.0
66.8132 475.0
66.88 481.0
66.9468 473.0
67.0137 489.0
67.0805 443.0
67.1474 448.0
67.2142 462.0
67.2811 428.0
67.3479 457.0
67.4148 444.0
67.4816 495.0
67.5484 506.0
67.6153 480.0
67.6821 429.0
67.749 438.0
67.8158 447.0
67.8827 431.0
67.9495 477.0
68.0164 438.0
68.0832 466.0
68.1501 460.0
68.2169 470.0
68.2837 416.0
68.3506 475.0
68.4174 464.0
68.4843 459.0
68.5511 443.0
68.618 436.0
68.6848 453.0
68.7517 462.0
68.8185 451.0
68.8853 465.0
68.9522 433.0
69.019 451.0
69.0859 431.0
69.1527 470.0
69.2196 393.0
69.2864 457.0
69.3533 487.0
69.4201 432.0
69.487 419.0
69.5538 465.0
69.6206 485.0
69.6875 416.0
69.7543 467.0
69.8212 473.0
69.888 467.0
69.9549 463.0
70.0217 428.0
70.0886 447.0
70.1554 438.0
70.2222 471.0
70.2891 410.0
70.3559 425.0
70.4228 443.0
70.4896 458.0
70.5565 402.0
70.6233 441.0
70.6902 463.0
70.757 457.0
70.8239 438.0
70.8907 406.0
70.9575 420.0
71.0244 446.0
71.0912 431.0
71.1581 426.0
71.2249 444.0
71.2918 416.0
71.3586 422.0
71.4255 443.0
71.4923 387.0
71.5592 465.0
71.626 444.0
71.6928 436.0
71.7597 449.0
71.8265 429.0
71.8934 434.0
71.9602 431.0
72.0271 451.0
72.0939 426.0
72.1608 444.0
72.2276 423.0
72.2944 422.0
72.3613 422.0
72.4281 428.0
72.495 423.0
72.5618 411.0
72.6287 454.0
72.6955 398.0
72.7624 434.0
72.8292 425.0
72.8961 428.0
72.9629 438.0
73.0297 393.0
73.0966 471.0
73.1634 451.0
73.2303 433.0
73.2971 442.0
73.364 441.0
73.4308 396.0
73.4977 428.0
73.5645 403.0
73.6313 380.0
73.6982 408.0
73.765 376.0
73.8319 417.0
73.8987 422.0
73.9656 435.0
74.0324 382.0
74.0993 413.0
74.1661 396.0
74.233 400.0
74.2998 414.0
74.3666 393.0
74.4335 383.0
74.5003 442.0
74.5672 398.0
74.634 445.0
74.7009 416.0
74.7677 401.0
74.8346 383.0
74.9014 429.0
74.9683 403.0
75.0351 378.0
75.1019 420.0
75.1688 448.0
75.2356 369.0
75.3025 379.0
75.3693 387.0
75.4362 372.0
75.503 419.0
75.5699 369.0
75.6367 361.0
75.7035 367.0
75.7704 377.0
75.8372 406.0
75.9041 371.0
75.9709 371.0
76.0378 389.0
76.1046 406.0
76.1715 388.0
76.2383 393.0
76.3052 399.0
76.372 371.0
76.4388 388.0
76.5057 399.0
76.5725 393.0
76.6394 364.0
76.7062 420.0
76.7731 398.0
76.8399 348.0
76.9068 383.0
76.9736 389.0
77.0404 334.0
77.1073 384.0
77.1741 396.0
77.241 389.0
77.3078 409.0
77.3747 393.0
77.4415 382.0
77.5084 357.0
77.5752 402.0
77.6421 356.0
77.7089 363.0
77.7757 369.0
77.8426 401.0
77.9094 382.0
77.9763 340.0
78.0431 342.0
78.11 379.0
78.1768 373.0
78.2437 350.0
78.3105 336.0
78.3773 361.0
78.4442 358.0
78.511 372.0
78.5779 353.0
78.6447 362.0
78.7116 345.0
78.7784 346.0
78.8453 370.0
78.9121 372.0
78.979 352.0
79.0458 395.0
79.1126 345.0
79.1795 373.0
79.2463 356.0
79.3132 330.0
79.38 342.0
79.4469 342.0
79.5137 375.0
79.5806 336.0
79.6474 323.0
79.7143 329.0
79.7811 334.0
79.8479 355.0
79.9148 356.0
79.9816 355.0
80.0485 328.0
80.1153 313.0
80.1822 323.0
80.249 341.0
80.3159 331.0
80.3827 345.0
80.4495 303.0
80.5164 325.0
80.5832 371.0
80.6501 356.0
80.7169 339.0
80.7838 330.0
80.8506 320.0
80.9175 352.0
80.9843 325.0
81.0512 337.0
81.118 299.0
81.1848 340.0
81.2517 324.0
81.3185 314.0
81.3854 323.0
81.4522 326.0
81.5191 320.0
81.5859 320.0
81.6528 321.0
81.7196 337.0
81.7864 274.0
81.8533 298.0
81.9201 313.0
81.987 313.0
82.0538 321.0
82.1207 282.0
82.1875 288.0
82.2544 302.0
82.3212 308.0
82.3881 298.0
82.4549 326.0
82.5217 326.0
82.5886 314.0
82.6554 302.0
82.7223 298.0
82.7891 313.0
82.856 301.0
82.9228 314.0
82.9897 308.0
83.0565 277.0
83.1233 295.0
83.1902 289.0
83.257 288.0
83.3239 324.0
83.3907 279.0
83.4576 289.0
83.5244 294.0
83.5913 308.0
83.6581 313.0
83.725 310.0
83.7918 295.0
83.8586 288.0
83.9255 259.0
83.9923 283.0
84.0592 266.0
84.126 286.0
84.1929 291.0
84.2597 316.0
84.3266 290.0
84.3934 267.0
84.4603 277.0
84.5271 290.0
84.5939 256.0
84.6608 260.0
84.7276 250.0
84.7945 256.0
84.8613 274.0
84.9282 290.0
84.995 282.0
85.0619 258.0
85.1287 273.0
85.1955 261.0
85.2624 266.0
85.3292 268.0
85.3961 231.0
85.4629 273.0
85.5298 240.0
85.5966 241.0
85.6635 259.0
85.7303 275.0
85.7972 289.0
85.864 267.0
85.9308 253.0
85.9977 263.0
86.0645 271.0
86.1314 266.0
86.1982 276.0
86.2651 272.0
86.3319 247.0
86.3988 255.0
86.4656 250.0
86.5324 266.0
86.5993 259.0
86.6661 233.0
86.733 228.0
86.7998 261.0
86.8667 277.0
86.9335 224.0
87.0004 252.0
87.0672 257.0
87.1341 245.0
87.2009 222.0
87.2677 210.0
87.3346 272.0
87.4014 240.0
87.4683 223.0
87.5351 220.0
87.602 247.0
87.6688 294.0
87.7357 240.0
87.8025 247.0
87.8693 205.0
87.9362 231.0
88.003 258.0
88.0699 255.0
88.1367 222.0
88.2036 267.0
88.2704 226.0
88.3373 217.0
88.4041 239.0
88.471 262.0
88.5378 235.0
88.6046 223.0
88.6715 241.0
88.7383 247.0
88.8052 237.0
88.872 245.0
88.9389 248.0
89.0057 240.0
89.0726 256.0
89.1394 243.0
89.2063 206.0
89.2731 258.0
89.3399 257.0
89.4068 208.0
89.4736 223.0
89.5405 271.0
89.6073 227.0
89.6742 228.0
89.741 251.0
89.8079 251.0
89.8747 231.0
89.9415 219.0