File: code/XRD_Analysis/Zeolites/data_files/SAPO-14/assynth/20241001_SAPO-14-2-AP.xy
4.98146 1051.0
5.0483 1031.0
5.11515 1010.0
5.18199 995.0
5.24884 1019.0
5.31568 931.0
5.38253 927.0
5.44937 922.0
5.51622 933.0
5.58306 964.0
5.64991 893.0
5.71675 911.0
5.7836 868.0
5.85044 872.0
5.91729 840.0
5.98413 893.0
6.05098 866.0
6.11782 849.0
6.18467 830.0
6.25151 840.0
6.31836 785.0
6.3852 845.0
6.45205 808.0
6.51889 810.0
6.58574 794.0
6.65258 832.0
6.71943 748.0
6.78627 791.0
6.85312 815.0
6.91996 782.0
6.98681 764.0
7.05365 748.0
7.1205 750.0
7.18734 808.0
7.25419 927.0
7.32103 1079.0
7.38788 1723.0
7.45472 3327.0
7.52157 979.0
7.58841 734.0
7.65526 703.0
7.7221 711.0
7.78895 694.0
7.85579 736.0
7.92264 696.0
7.98948 727.0
8.05633 1010.0
8.12317 1676.0
8.19002 1473.0
8.25686 699.0
8.32371 676.0
8.39055 628.0
8.4574 626.0
8.52424 639.0
8.59109 617.0
8.65793 595.0
8.72478 604.0
8.79162 594.0
8.85847 598.0
8.92532 600.0
8.99216 606.0
9.05901 695.0
9.12585 737.0
9.1927 704.0
9.25954 795.0
9.32639 1083.0
9.39323 2246.0
9.46008 6946.0
9.52692 16196.0
9.59377 3784.0
9.66061 863.0
9.72746 684.0
9.7943 612.0
9.86115 591.0
9.92799 544.0
9.99484 514.0
10.0617 517.0
10.1285 526.0
10.1954 529.0
10.2622 529.0
10.3291 504.0
10.3959 522.0
10.4628 467.0
10.5296 523.0
10.5964 489.0
10.6633 509.0
10.7301 496.0
10.797 508.0
10.8638 481.0
10.9307 508.0
10.9975 478.0
11.0644 527.0
11.1312 513.0
11.198 485.0
11.2649 477.0
11.3317 417.0
11.3986 456.0
11.4654 477.0
11.5323 444.0
11.5991 458.0
11.666 466.0
11.7328 478.0
11.7997 490.0
11.8665 457.0
11.9333 495.0
12.0002 431.0
12.067 445.0
12.1339 423.0
12.2007 460.0
12.2676 458.0
12.3344 474.0
12.4013 460.0
12.4681 417.0
12.5349 408.0
12.6018 471.0
12.6686 451.0
12.7355 566.0
12.8023 1161.0
12.8692 3048.0
12.936 1431.0
13.0029 540.0
13.0697 526.0
13.1366 872.0
13.2034 1148.0
13.2702 626.0
13.3371 463.0
13.4039 501.0
13.4708 540.0
13.5376 752.0
13.6045 661.0
13.6713 458.0
13.7382 518.0
13.805 555.0
13.8719 825.0
13.9387 2691.0
14.0055 10930.0
14.0724 6338.0
14.1392 697.0
14.2061 481.0
14.2729 480.0
14.3398 469.0
14.4066 418.0
14.4735 419.0
14.5403 428.0
14.6071 399.0
14.674 400.0
14.7408 449.0
14.8077 610.0
14.8745 1060.0
14.9414 711.0
15.0082 466.0
15.0751 425.0
15.1419 412.0
15.2088 407.0
15.2756 487.0
15.3424 454.0
15.4093 441.0
15.4761 445.0
15.543 487.0
15.6098 506.0
15.6767 802.0
15.7435 1713.0
15.8104 1832.0
15.8772 850.0
15.944 1368.0
16.0109 4242.0
16.0777 2355.0
16.1446 596.0
16.2114 492.0
16.2783 602.0
16.3451 529.0
16.412 449.0
16.4788 400.0
16.5457 416.0
16.6125 429.0
16.6793 422.0
16.7462 402.0
16.813 434.0
16.8799 395.0
16.9467 425.0
17.0136 408.0
17.0804 430.0
17.1473 451.0
17.2141 413.0
17.2809 418.0
17.3478 413.0
17.4146 458.0
17.4815 450.0
17.5483 455.0
17.6152 440.0
17.682 464.0
17.7489 585.0
17.8157 1597.0
17.8826 3928.0
17.9494 1343.0
18.0162 478.0
18.0831 486.0
18.1499 430.0
18.2168 576.0
18.2836 609.0
18.3505 481.0
18.4173 467.0
18.4842 477.0
18.551 433.0
18.6179 442.0
18.6847 470.0
18.7515 414.0
18.8184 516.0
18.8852 508.0
18.9521 507.0
19.0189 970.0
19.0858 1584.0
19.1526 981.0
19.2195 560.0
19.2863 543.0
19.3531 501.0
19.42 542.0
19.4868 549.0
19.5537 595.0
19.6205 851.0
19.6874 1953.0
19.7542 2460.0
19.8211 4363.0
19.8879 6983.0
19.9548 1715.0
20.0216 688.0
20.0884 666.0
20.1553 730.0
20.2221 1025.0
20.289 1991.0
20.3558 4720.0
20.4227 4631.0
20.4895 4016.0
20.5564 10574.0
20.6232 12801.0
20.69 3634.0
20.7569 929.0
20.8237 821.0
20.8906 927.0
20.9574 1177.0
21.0243 2057.0
21.0911 4602.0
21.158 5868.0
21.2248 3493.0
21.2917 1855.0
21.3585 1230.0
21.4253 1356.0
21.4922 3095.0
21.559 3390.0
21.6259 1485.0
21.6927 1004.0
21.7596 1098.0
21.8264 1294.0
21.8933 1085.0
21.9601 959.0
22.0269 1991.0
22.0938 3292.0
22.1606 2790.0
22.2275 3627.0
22.2943 2912.0
22.3612 4095.0
22.428 5071.0
22.4949 2883.0
22.5617 1633.0
22.6286 1152.0
22.6954 1190.0
22.7622 1827.0
22.8291 2418.0
22.8959 2372.0
22.9628 1966.0
23.0296 3434.0
23.0965 3543.0
23.1633 2487.0
23.2302 2700.0
23.297 3389.0
23.3639 2197.0
23.4307 1037.0
23.4975 743.0
23.5644 669.0
23.6312 572.0
23.6981 606.0
23.7649 600.0
23.8318 567.0
23.8986 571.0
23.9655 652.0
24.0323 621.0
24.0991 729.0
24.166 719.0
24.2328 1068.0
24.2997 3460.0
24.3665 15599.0
24.4334 10887.0
24.5002 2321.0
24.5671 902.0
24.6339 795.0
24.7008 716.0
24.7676 844.0
24.8344 1095.0
24.9013 1247.0
24.9681 2780.0
25.035 10876.0
25.1018 7125.0
25.1687 1484.0
25.2355 710.0
25.3024 623.0
25.3692 573.0
25.436 611.0
25.5029 590.0
25.5697 610.0
25.6366 602.0
25.7034 595.0
25.7703 834.0
25.8371 2400.0
25.904 4443.0
25.9708 2190.0
26.0377 719.0
26.1045 604.0
26.1713 532.0
26.2382 579.0
26.305 623.0
26.3719 791.0
26.4387 1208.0
26.5056 1591.0
26.5724 1325.0
26.6393 762.0
26.7061 638.0
26.773 570.0
26.8398 497.0
26.9066 539.0
26.9735 586.0
27.0403 532.0
27.1072 551.0
27.174 630.0
27.2409 595.0
27.3077 552.0
27.3746 560.0
27.4414 527.0
27.5082 584.0
27.5751 789.0
27.6419 974.0
27.7088 813.0
27.7756 536.0
27.8425 574.0
27.9093 620.0
27.9762 654.0
28.043 578.0
28.1099 810.0
28.1767 2177.0
28.2435 3908.0
28.3104 2122.0
28.3772 730.0
28.4441 619.0
28.5109 565.0
28.5778 553.0
28.6446 571.0
28.7115 648.0
28.7783 898.0
28.8451 1126.0
28.912 1024.0
28.9788 1160.0
29.0457 1361.0
29.1125 969.0
29.1794 584.0
29.2462 561.0
29.3131 573.0
29.3799 575.0
29.4468 664.0
29.5136 959.0
29.5804 1076.0
29.6473 816.0
29.7141 845.0
29.781 1114.0
29.8478 1042.0
29.9147 1038.0
29.9815 1256.0
30.0484 946.0
30.1152 674.0
30.182 584.0
30.2489 570.0
30.3157 578.0
30.3826 631.0
30.4494 824.0
30.5163 2651.0
30.5831 5241.0
30.65 3320.0
30.7168 1397.0
30.7837 709.0
30.8505 1021.0
30.9173 2230.0
30.9842 1785.0
31.051 1611.0
31.1179 3774.0
31.1847 3876.0
31.2516 2019.0
31.3184 725.0
31.3853 573.0
31.4521 654.0
31.519 860.0
31.5858 2006.0
31.6526 2821.0
31.7195 1778.0
31.7863 711.0
31.8532 555.0
31.92 553.0
31.9869 507.0
32.0537 474.0
32.1206 486.0
32.1874 482.0
32.2542 493.0
32.3211 618.0
32.3879 535.0
32.4548 466.0
32.5216 470.0
32.5885 462.0
32.6553 469.0
32.7222 543.0
32.789 601.0
32.8559 958.0
32.9227 913.0
32.9895 763.0
33.0564 557.0
33.1232 469.0
33.1901 471.0
33.2569 531.0
33.3238 610.0
33.3906 541.0
33.4575 441.0
33.5243 553.0
33.5911 1180.0
33.658 1161.0
33.7248 870.0
33.7917 524.0
33.8585 457.0
33.9254 416.0
33.9922 454.0
34.0591 441.0
34.1259 551.0
34.1928 580.0
34.2596 555.0
34.3264 644.0
34.3933 1256.0
34.4601 2368.0
34.527 1908.0
34.5938 1214.0
34.6607 1215.0
34.7275 3058.0
34.7944 1729.0
34.8612 1141.0
34.928 736.0
34.9949 618.0
35.0617 498.0
35.1286 388.0
35.1954 379.0
35.2623 381.0
35.3291 395.0
35.396 417.0
35.4628 473.0
35.5297 628.0
35.5965 717.0
35.6633 690.0
35.7302 598.0
35.797 583.0
35.8639 500.0
35.9307 476.0
35.9976 552.0
36.0644 812.0
36.1313 1231.0
36.1981 881.0
36.265 537.0
36.3318 502.0
36.3986 553.0
36.4655 473.0
36.5323 431.0
36.5992 361.0
36.666 361.0
36.7329 350.0
36.7997 364.0
36.8666 430.0
36.9334 529.0
37.0002 419.0
37.0671 387.0
37.1339 325.0
37.2008 356.0
37.2676 348.0
37.3345 369.0
37.4013 364.0
37.4682 375.0
37.535 423.0
37.6019 677.0
37.6687 696.0
37.7355 974.0
37.8024 859.0
37.8692 817.0
37.9361 584.0
38.0029 617.0
38.0698 592.0
38.1366 582.0
38.2035 522.0
38.2703 460.0
38.3371 385.0
38.404 440.0
38.4708 442.0
38.5377 493.0
38.6045 576.0
38.6714 689.0
38.7382 561.0
38.8051 472.0
38.8719 360.0
38.9388 365.0
39.0056 408.0
39.0724 439.0
39.1393 424.0
39.2061 495.0
39.273 547.0
39.3398 465.0
39.4067 453.0
39.4735 414.0
39.5404 377.0
39.6072 528.0
39.6741 667.0
39.7409 556.0
39.8077 433.0
39.8746 351.0
39.9414 362.0
40.0083 364.0
40.0751 328.0
40.142 334.0
40.2088 383.0
40.2757 657.0
40.3425 699.0
40.4093 580.0
40.4762 397.0
40.543 381.0
40.6099 363.0
40.6767 348.0
40.7436 431.0
40.8104 395.0
40.8773 362.0
40.9441 363.0
41.011 349.0
41.0778 356.0
41.1446 356.0
41.2115 348.0
41.2783 366.0
41.3452 373.0
41.412 403.0
41.4789 417.0
41.5457 383.0
41.6126 400.0
41.6794 344.0
41.7462 377.0
41.8131 423.0
41.8799 469.0
41.9468 455.0
42.0136 440.0
42.0805 386.0
42.1473 414.0
42.2142 477.0
42.281 426.0
42.3479 370.0
42.4147 371.0
42.4815 341.0
42.5484 375.0
42.6152 383.0
42.6821 419.0
42.7489 459.0
42.8158 787.0
42.8826 1362.0
42.9495 1214.0
43.0163 920.0
43.0831 714.0
43.15 703.0
43.2168 545.0
43.2837 504.0
43.3505 498.0
43.4174 622.0
43.4842 620.0
43.5511 483.0
43.6179 450.0
43.6848 411.0
43.7516 357.0
43.8184 381.0
43.8853 438.0
43.9521 397.0
44.019 366.0
44.0858 352.0
44.1527 325.0
44.2195 348.0
44.2864 341.0
44.3532 282.0
44.4201 332.0
44.4869 325.0
44.5537 346.0
44.6206 353.0
44.6874 352.0
44.7543 417.0
44.8211 435.0
44.888 461.0
44.9548 482.0
45.0217 429.0
45.0885 389.0
45.1553 426.0
45.2222 393.0
45.289 399.0
45.3559 354.0
45.4227 341.0
45.4896 317.0
45.5564 336.0
45.6233 358.0
45.6901 342.0
45.757 336.0
45.8238 345.0
45.8906 346.0
45.9575 355.0
46.0243 336.0
46.0912 342.0
46.158 311.0
46.2249 320.0
46.2917 308.0
46.3586 306.0
46.4254 337.0
46.4922 348.0
46.5591 338.0
46.6259 392.0
46.6928 438.0
46.7596 381.0
46.8265 316.0
46.8933 336.0
46.9602 331.0
47.027 335.0
47.0939 391.0
47.1607 396.0
47.2275 367.0
47.2944 342.0
47.3612 332.0
47.4281 316.0
47.4949 406.0
47.5618 669.0
47.6286 1058.0
47.6955 902.0
47.7623 692.0
47.8291 511.0
47.896 357.0
47.9628 304.0
48.0297 335.0
48.0965 345.0
48.1634 338.0
48.2302 344.0
48.2971 365.0
48.3639 328.0
48.4308 360.0
48.4976 377.0
48.5644 365.0
48.6313 397.0
48.6981 410.0
48.765 496.0
48.8318 865.0
48.8987 1360.0
48.9655 771.0
49.0324 782.0
49.0992 433.0
49.1661 371.0
49.2329 386.0
49.2997 383.0
49.3666 400.0
49.4334 534.0
49.5003 748.0
49.5671 523.0
49.634 538.0
49.7008 419.0
49.7677 336.0
49.8345 344.0
49.9013 363.0
49.9682 323.0
50.035 349.0
50.1019 362.0
50.1687 334.0
50.2356 363.0
50.3024 309.0
50.3693 354.0
50.4361 402.0
50.503 442.0
50.5698 538.0
50.6366 524.0
50.7035 708.0
50.7703 1001.0
50.8372 927.0
50.904 727.0
50.9709 668.0
51.0377 422.0
51.1046 408.0
51.1714 373.0
51.2382 419.0
51.3051 427.0
51.3719 509.0
51.4388 436.0
51.5056 397.0
51.5725 384.0
51.6393 353.0
51.7062 404.0
51.773 426.0
51.8399 431.0
51.9067 381.0
51.9735 446.0
52.0404 970.0
52.1072 1716.0
52.1741 938.0
52.2409 1006.0
52.3078 520.0
52.3746 361.0
52.4415 361.0
52.5083 355.0
52.5751 335.0
52.642 354.0
52.7088 379.0
52.7757 315.0
52.8425 337.0
52.9094 352.0
52.9762 370.0
53.0431 459.0
53.1099 846.0
53.1768 1299.0
53.2436 1242.0
53.3104 879.0
53.3773 663.0
53.4441 417.0
53.511 370.0
53.5778 366.0
53.6447 388.0
53.7115 330.0
53.7784 347.0
53.8452 391.0
53.9121 306.0
53.9789 299.0
54.0457 328.0
54.1126 332.0
54.1794 360.0
54.2463 380.0
54.3131 460.0
54.38 1013.0
54.4468 995.0
54.5137 643.0
54.5805 705.0
54.6473 429.0
54.7142 358.0
54.781 406.0
54.8479 385.0
54.9147 395.0
54.9816 350.0
55.0484 347.0
55.1153 320.0
55.1821 334.0
55.249 313.0
55.3158 330.0
55.3826 404.0
55.4495 502.0
55.5163 429.0
55.5832 449.0
55.65 422.0
55.7169 389.0
55.7837 472.0
55.8506 550.0
55.9174 670.0
55.9842 570.0
56.0511 474.0
56.1179 514.0
56.1848 525.0
56.2516 724.0
56.3185 642.0
56.3853 501.0
56.4522 504.0
56.519 438.0
56.5859 382.0
56.6527 340.0
56.7195 385.0
56.7864 375.0
56.8532 352.0
56.9201 356.0
56.9869 339.0
57.0538 361.0
57.1206 335.0
57.1875 422.0
57.2543 377.0
57.3212 435.0
57.388 332.0
57.4548 337.0
57.5217 349.0
57.5885 287.0
57.6554 289.0
57.7222 314.0
57.7891 301.0
57.8559 307.0
57.9228 300.0
57.9896 346.0
58.0564 328.0
58.1233 366.0
58.1901 385.0
58.257 591.0
58.3238 837.0
58.3907 771.0
58.4575 914.0
58.5244 697.0
58.5912 568.0
58.6581 541.0
58.7249 400.0
58.7917 400.0
58.8586 346.0
58.9254 367.0
58.9923 318.0
59.0591 319.0
59.126 307.0
59.1928 290.0
59.2597 309.0
59.3265 331.0
59.3933 396.0
59.4602 566.0
59.527 602.0
59.5939 517.0
59.6607 525.0
59.7276 505.0
59.7944 375.0
59.8613 355.0
59.9281 373.0
59.995 370.0
60.0618 378.0
60.1286 388.0
60.1955 432.0
60.2623 538.0
60.3292 550.0
60.396 387.0
60.4629 444.0
60.5297 439.0
60.5966 413.0
60.6634 387.0
60.7302 416.0
60.7971 376.0
60.8639 476.0
60.9308 570.0
60.9976 639.0
61.0645 520.0
61.1313 529.0
61.1982 568.0
61.265 528.0
61.3319 583.0
61.3987 443.0
61.4655 465.0
61.5324 395.0
61.5992 354.0
61.6661 329.0
61.7329 309.0
61.7998 364.0
61.8666 373.0
61.9335 361.0
62.0003 336.0
62.0672 347.0
62.134 486.0
62.2008 746.0
62.2677 581.0
62.3345 454.0
62.4014 521.0
62.4682 395.0
62.5351 324.0
62.6019 385.0
62.6688 353.0
62.7356 442.0
62.8024 494.0
62.8693 420.0
62.9361 411.0
63.003 370.0
63.0698 335.0
63.1367 303.0
63.2035 302.0
63.2704 363.0
63.3372 314.0
63.4041 322.0
63.4709 344.0
63.5377 331.0
63.6046 348.0
63.6714 389.0
63.7383 342.0
63.8051 365.0
63.872 338.0
63.9388 316.0
64.0057 321.0
64.0725 388.0
64.1393 461.0
64.2062 416.0
64.273 392.0
64.3399 413.0
64.4067 358.0
64.4736 353.0
64.5404 316.0
64.6073 381.0
64.6741 340.0
64.741 319.0
64.8078 303.0
64.8746 324.0
64.9415 298.0
65.0083 321.0
65.0752 316.0
65.142 334.0
65.2089 294.0
65.2757 344.0
65.3426 307.0
65.4094 367.0
65.4762 376.0
65.5431 351.0
65.6099 315.0
65.6768 305.0
65.7436 311.0
65.8105 278.0
65.8773 331.0
65.9442 486.0
66.011 623.0
66.0779 524.0
66.1447 512.0
66.2115 479.0
66.2784 398.0
66.3452 346.0
66.4121 333.0
66.4789 318.0
66.5458 357.0
66.6126 316.0
66.6795 320.0
66.7463 335.0
66.8132 350.0
66.88 480.0
66.9468 642.0
67.0137 502.0
67.0805 446.0
67.1474 509.0
67.2142 402.0
67.2811 347.0
67.3479 407.0
67.4148 396.0
67.4816 340.0
67.5484 364.0
67.6153 306.0
67.6821 295.0
67.749 320.0
67.8158 357.0
67.8827 362.0
67.9495 358.0
68.0164 392.0
68.0832 375.0
68.1501 361.0
68.2169 319.0
68.2837 339.0
68.3506 300.0
68.4174 288.0
68.4843 297.0
68.5511 270.0
68.618 301.0
68.6848 309.0
68.7517 283.0
68.8185 316.0
68.8853 308.0
68.9522 316.0
69.019 369.0
69.0859 448.0
69.1527 376.0
69.2196 369.0
69.2864 400.0
69.3533 362.0
69.4201 314.0
69.487 305.0
69.5538 384.0
69.6206 651.0
69.6875 791.0
69.7543 447.0
69.8212 538.0
69.888 548.0
69.9549 386.0
70.0217 401.0
70.0886 364.0
70.1554 292.0
70.2222 362.0
70.2891 345.0
70.3559 320.0
70.4228 346.0
70.4896 365.0
70.5565 587.0
70.6233 809.0
70.6902 547.0
70.757 476.0
70.8239 531.0
70.8907 419.0
70.9575 370.0
71.0244 404.0
71.0912 436.0
71.1581 409.0
71.2249 402.0
71.2918 370.0
71.3586 378.0
71.4255 436.0
71.4923 431.0
71.5592 349.0
71.626 347.0
71.6928 357.0
71.7597 308.0
71.8265 293.0
71.8934 319.0
71.9602 331.0
72.0271 328.0
72.0939 404.0
72.1608 414.0
72.2276 400.0
72.2944 424.0
72.3613 377.0
72.4281 329.0
72.495 382.0
72.5618 403.0
72.6287 434.0
72.6955 419.0
72.7624 345.0
72.8292 383.0
72.8961 338.0
72.9629 318.0
73.0297 318.0
73.0966 330.0
73.1634 321.0
73.2303 434.0
73.2971 361.0
73.364 292.0
73.4308 367.0
73.4977 315.0
73.5645 299.0
73.6313 276.0
73.6982 277.0
73.765 285.0
73.8319 325.0
73.8987 260.0
73.9656 349.0
74.0324 325.0
74.0993 364.0
74.1661 339.0
74.233 319.0
74.2998 314.0
74.3666 277.0
74.4335 267.0
74.5003 306.0
74.5672 297.0
74.634 299.0
74.7009 318.0
74.7677 290.0
74.8346 334.0
74.9014 314.0
74.9683 445.0
75.0351 537.0
75.1019 504.0
75.1688 479.0
75.2356 471.0
75.3025 456.0
75.3693 366.0
75.4362 388.0
75.503 357.0
75.5699 332.0
75.6367 293.0
75.7035 290.0
75.7704 293.0
75.8372 310.0
75.9041 316.0
75.9709 288.0
76.0378 316.0
76.1046 323.0
76.1715 329.0
76.2383 317.0
76.3052 328.0
76.372 326.0
76.4388 317.0
76.5057 298.0
76.5725 354.0
76.6394 339.0
76.7062 322.0
76.7731 330.0
76.8399 331.0
76.9068 309.0
76.9736 302.0
77.0404 331.0
77.1073 330.0
77.1741 336.0
77.241 352.0
77.3078 350.0
77.3747 353.0
77.4415 325.0
77.5084 297.0
77.5752 279.0
77.6421 306.0
77.7089 260.0
77.7757 260.0
77.8426 254.0
77.9094 263.0
77.9763 319.0
78.0431 280.0
78.11 368.0
78.1768 352.0
78.2437 284.0
78.3105 317.0
78.3773 317.0
78.4442 380.0
78.511 476.0
78.5779 383.0
78.6447 344.0
78.7116 381.0
78.7784 381.0
78.8453 302.0
78.9121 257.0
78.979 274.0
79.0458 310.0
79.1126 274.0
79.1795 319.0
79.2463 308.0
79.3132 315.0
79.38 314.0
79.4469 349.0
79.5137 258.0
79.5806 286.0
79.6474 301.0
79.7143 279.0
79.7811 302.0
79.8479 298.0
79.9148 283.0
79.9816 319.0
80.0485 295.0
80.1153 297.0
80.1822 356.0
80.249 416.0
80.3159 429.0
80.3827 467.0
80.4495 473.0
80.5164 393.0
80.5832 297.0
80.6501 283.0
80.7169 331.0
80.7838 266.0
80.8506 250.0
80.9175 276.0
80.9843 282.0
81.0512 325.0
81.118 306.0
81.1848 247.0
81.2517 283.0
81.3185 295.0
81.3854 298.0
81.4522 295.0
81.5191 264.0
81.5859 266.0
81.6528 252.0
81.7196 272.0
81.7864 245.0
81.8533 240.0
81.9201 260.0
81.987 258.0
82.0538 239.0
82.1207 206.0
82.1875 246.0
82.2544 267.0
82.3212 289.0
82.3881 215.0
82.4549 274.0
82.5217 293.0
82.5886 247.0
82.6554 246.0
82.7223 223.0
82.7891 273.0
82.856 261.0
82.9228 286.0
82.9897 292.0
83.0565 268.0
83.1233 251.0
83.1902 228.0
83.257 251.0
83.3239 236.0
83.3907 224.0
83.4576 207.0
83.5244 191.0
83.5913 186.0
83.6581 206.0
83.725 232.0
83.7918 230.0
83.8586 229.0
83.9255 246.0
83.9923 261.0
84.0592 243.0
84.126 243.0
84.1929 225.0
84.2597 236.0
84.3266 227.0
84.3934 235.0
84.4603 189.0
84.5271 179.0
84.5939 209.0
84.6608 193.0
84.7276 200.0
84.7945 189.0
84.8613 186.0
84.9282 195.0
84.995 172.0
85.0619 170.0
85.1287 184.0
85.1955 177.0
85.2624 212.0
85.3292 194.0
85.3961 220.0
85.4629 194.0
85.5298 220.0
85.5966 220.0
85.6635 212.0
85.7303 196.0
85.7972 204.0
85.864 193.0
85.9308 191.0
85.9977 165.0
86.0645 153.0
86.1314 195.0
86.1982 175.0
86.2651 181.0
86.3319 179.0
86.3988 194.0
86.4656 178.0
86.5324 203.0
86.5993 183.0
86.6661 198.0
86.733 204.0
86.7998 212.0
86.8667 210.0
86.9335 197.0
87.0004 220.0
87.0672 239.0
87.1341 239.0
87.2009 214.0
87.2677 211.0
87.3346 194.0
87.4014 188.0
87.4683 161.0
87.5351 189.0
87.602 209.0
87.6688 204.0
87.7357 233.0
87.8025 225.0
87.8693 205.0
87.9362 194.0
88.003 231.0
88.0699 240.0
88.1367 244.0
88.2036 262.0
88.2704 282.0
88.3373 226.0
88.4041 229.0
88.471 200.0
88.5378 214.0
88.6046 186.0
88.6715 207.0
88.7383 192.0
88.8052 209.0
88.872 199.0
88.9389 192.0
89.0057 221.0
89.0726 178.0
89.1394 167.0
89.2063 175.0
89.2731 185.0
89.3399 159.0
89.4068 181.0
89.4736 178.0
89.5405 193.0
89.6073 186.0
89.6742 157.0
89.741 186.0
89.8079 190.0
89.8747 191.0
89.9415 160.0