File: code/XRD_Analysis/Zeolites/data_files/SAPO-14/assynth/20241001_SAPO-14-1_AP.xy
4.98146 912.0
5.0483 1066.0
5.11515 964.0
5.18199 988.0
5.24884 906.0
5.31568 939.0
5.38253 915.0
5.44937 909.0
5.51622 867.0
5.58306 887.0
5.64991 868.0
5.71675 913.0
5.7836 860.0
5.85044 803.0
5.91729 818.0
5.98413 809.0
6.05098 808.0
6.11782 806.0
6.18467 790.0
6.25151 754.0
6.31836 795.0
6.3852 771.0
6.45205 713.0
6.51889 775.0
6.58574 713.0
6.65258 731.0
6.71943 751.0
6.78627 695.0
6.85312 700.0
6.91996 695.0
6.98681 712.0
7.05365 651.0
7.1205 654.0
7.18734 703.0
7.25419 662.0
7.32103 676.0
7.38788 629.0
7.45472 662.0
7.52157 685.0
7.58841 674.0
7.65526 619.0
7.7221 661.0
7.78895 664.0
7.85579 659.0
7.92264 646.0
7.98948 632.0
8.05633 620.0
8.12317 678.0
8.19002 648.0
8.25686 617.0
8.32371 644.0
8.39055 700.0
8.4574 724.0
8.52424 766.0
8.59109 882.0
8.65793 1091.0
8.72478 1504.0
8.79162 2840.0
8.85847 7495.0
8.92532 22978.0
8.99216 19261.0
9.05901 2278.0
9.12585 1075.0
9.1927 839.0
9.25954 760.0
9.32639 901.0
9.39323 1687.0
9.46008 4255.0
9.52692 787.0
9.59377 599.0
9.66061 512.0
9.72746 525.0
9.7943 556.0
9.86115 512.0
9.92799 485.0
9.99484 500.0
10.0617 475.0
10.1285 490.0
10.1954 443.0
10.2622 472.0
10.3291 448.0
10.3959 434.0
10.4628 474.0
10.5296 457.0
10.5964 460.0
10.6633 471.0
10.7301 496.0
10.797 504.0
10.8638 495.0
10.9307 679.0
10.9975 1509.0
11.0644 4536.0
11.1312 5146.0
11.198 1245.0
11.2649 550.0
11.3317 449.0
11.3986 422.0
11.4654 391.0
11.5323 426.0
11.5991 365.0
11.666 408.0
11.7328 395.0
11.7997 399.0
11.8665 385.0
11.9333 413.0
12.0002 370.0
12.067 379.0
12.1339 425.0
12.2007 334.0
12.2676 388.0
12.3344 394.0
12.4013 399.0
12.4681 364.0
12.5349 387.0
12.6018 419.0
12.6686 455.0
12.7355 455.0
12.8023 501.0
12.8692 760.0
12.936 2287.0
13.0029 7456.0
13.0697 2555.0
13.1366 613.0
13.2034 740.0
13.2702 2093.0
13.3371 3569.0
13.4039 774.0
13.4708 428.0
13.5376 397.0
13.6045 338.0
13.6713 356.0
13.7382 433.0
13.805 475.0
13.8719 486.0
13.9387 615.0
14.0055 384.0
14.0724 336.0
14.1392 291.0
14.2061 339.0
14.2729 290.0
14.3398 341.0
14.4066 353.0
14.4735 321.0
14.5403 321.0
14.6071 354.0
14.674 559.0
14.7408 573.0
14.8077 493.0
14.8745 346.0
14.9414 273.0
15.0082 334.0
15.0751 292.0
15.1419 332.0
15.2088 345.0
15.2756 337.0
15.3424 322.0
15.4093 332.0
15.4761 345.0
15.543 382.0
15.6098 482.0
15.6767 883.0
15.7435 3011.0
15.8104 3699.0
15.8772 4823.0
15.944 2093.0
16.0109 494.0
16.0777 316.0
16.1446 330.0
16.2114 314.0
16.2783 286.0
16.3451 301.0
16.412 290.0
16.4788 274.0
16.5457 242.0
16.6125 277.0
16.6793 272.0
16.7462 273.0
16.813 271.0
16.8799 276.0
16.9467 244.0
17.0136 274.0
17.0804 233.0
17.1473 262.0
17.2141 270.0
17.2809 275.0
17.3478 264.0
17.4146 272.0
17.4815 295.0
17.5483 285.0
17.6152 319.0
17.682 357.0
17.7489 411.0
17.8157 760.0
17.8826 2023.0
17.9494 4033.0
18.0162 2767.0
18.0831 716.0
18.1499 364.0
18.2168 326.0
18.2836 255.0
18.3505 295.0
18.4173 262.0
18.4842 270.0
18.551 322.0
18.6179 568.0
18.6847 1111.0
18.7515 490.0
18.8184 293.0
18.8852 283.0
18.9521 384.0
19.0189 529.0
19.0858 735.0
19.1526 669.0
19.2195 321.0
19.2863 253.0
19.3531 262.0
19.42 241.0
19.4868 214.0
19.5537 240.0
19.6205 217.0
19.6874 262.0
19.7542 400.0
19.8211 271.0
19.8879 276.0
19.9548 229.0
20.0216 221.0
20.0884 211.0
20.1553 245.0
20.2221 264.0
20.289 461.0
20.3558 566.0
20.4227 369.0
20.4895 329.0
20.5564 280.0
20.6232 352.0
20.69 592.0
20.7569 1766.0
20.8237 3243.0
20.8906 1228.0
20.9574 344.0
21.0243 261.0
21.0911 251.0
21.158 277.0
21.2248 287.0
21.2917 286.0
21.3585 295.0
21.4253 297.0
21.4922 444.0
21.559 885.0
21.6259 1373.0
21.6927 3163.0
21.7596 4928.0
21.8264 2289.0
21.8933 716.0
21.9601 476.0
22.0269 566.0
22.0938 1020.0
22.1606 3389.0
22.2275 3410.0
22.2943 1997.0
22.3612 2504.0
22.428 2797.0
22.4949 2678.0
22.5617 4398.0
22.6286 8003.0
22.6954 6134.0
22.7622 7286.0
22.8291 3654.0
22.8959 769.0
22.9628 441.0
23.0296 396.0
23.0965 460.0
23.1633 433.0
23.2302 319.0
23.297 307.0
23.3639 248.0
23.4307 248.0
23.4975 233.0
23.5644 293.0
23.6312 279.0
23.6981 339.0
23.7649 594.0
23.8318 481.0
23.8986 273.0
23.9655 226.0
24.0323 235.0
24.0991 199.0
24.166 236.0
24.2328 440.0
24.2997 605.0
24.3665 395.0
24.4334 211.0
24.5002 196.0
24.5671 206.0
24.6339 245.0
24.7008 206.0
24.7676 229.0
24.8344 178.0
24.9013 259.0
24.9681 380.0
25.035 320.0
25.1018 220.0
25.1687 251.0
25.2355 273.0
25.3024 372.0
25.3692 882.0
25.436 776.0
25.5029 379.0
25.5697 251.0
25.6366 295.0
25.7034 334.0
25.7703 409.0
25.8371 335.0
25.904 305.0
25.9708 386.0
26.0377 869.0
26.1045 2913.0
26.1713 3444.0
26.2382 2631.0
26.305 1190.0
26.3719 744.0
26.4387 760.0
26.5056 543.0
26.5724 379.0
26.6393 330.0
26.7061 291.0
26.773 242.0
26.8398 349.0
26.9066 330.0
26.9735 316.0
27.0403 493.0
27.1072 1189.0
27.174 1224.0
27.2409 634.0
27.3077 288.0
27.3746 241.0
27.4414 246.0
27.5082 393.0
27.5751 1029.0
27.6419 1189.0
27.7088 746.0
27.7756 389.0
27.8425 329.0
27.9093 248.0
27.9762 248.0
28.043 267.0
28.1099 453.0
28.1767 434.0
28.2435 300.0
28.3104 273.0
28.3772 242.0
28.4441 262.0
28.5109 328.0
28.5778 525.0
28.6446 722.0
28.7115 789.0
28.7783 1056.0
28.8451 940.0
28.912 1730.0
28.9788 2101.0
29.0457 1185.0
29.1125 459.0
29.1794 301.0
29.2462 342.0
29.3131 431.0
29.3799 1041.0
29.4468 3050.0
29.5136 4629.0
29.5804 2899.0
29.6473 1909.0
29.7141 1560.0
29.781 953.0
29.8478 506.0
29.9147 502.0
29.9815 540.0
30.0484 696.0
30.1152 1403.0
30.182 1042.0
30.2489 1351.0
30.3157 2250.0
30.3826 1320.0
30.4494 583.0
30.5163 379.0
30.5831 434.0
30.65 782.0
30.7168 2616.0
30.7837 4626.0
30.8505 4308.0
30.9173 2197.0
30.9842 980.0
31.051 489.0
31.1179 580.0
31.1847 779.0
31.2516 667.0
31.3184 450.0
31.3853 344.0
31.4521 276.0
31.519 283.0
31.5858 252.0
31.6526 237.0
31.7195 213.0
31.7863 239.0
31.8532 291.0
31.92 291.0
31.9869 463.0
32.0537 656.0
32.1206 1101.0
32.1874 704.0
32.2542 442.0
32.3211 428.0
32.3879 641.0
32.4548 631.0
32.5216 818.0
32.5885 767.0
32.6553 519.0
32.7222 247.0
32.789 246.0
32.8559 226.0
32.9227 212.0
32.9895 284.0
33.0564 539.0
33.1232 720.0
33.1901 851.0
33.2569 538.0
33.3238 379.0
33.3906 319.0
33.4575 417.0
33.5243 689.0
33.5911 662.0
33.658 1135.0
33.7248 1770.0
33.7917 1165.0
33.8585 563.0
33.9254 369.0
33.9922 251.0
34.0591 232.0
34.1259 217.0
34.1928 320.0
34.2596 545.0
34.3264 476.0
34.3933 314.0
34.4601 220.0
34.527 223.0
34.5938 233.0
34.6607 257.0
34.7275 192.0
34.7944 200.0
34.8612 210.0
34.928 314.0
34.9949 611.0
35.0617 761.0
35.1286 571.0
35.1954 334.0
35.2623 243.0
35.3291 191.0
35.396 248.0
35.4628 406.0
35.5297 1230.0
35.5965 1176.0
35.6633 862.0
35.7302 482.0
35.797 339.0
35.8639 271.0
35.9307 286.0
35.9976 502.0
36.0644 445.0
36.1313 329.0
36.1981 231.0
36.265 247.0
36.3318 320.0
36.3986 508.0
36.4655 717.0
36.5323 513.0
36.5992 329.0
36.666 288.0
36.7329 326.0
36.7997 247.0
36.8666 226.0
36.9334 175.0
37.0002 276.0
37.0671 385.0
37.1339 397.0
37.2008 394.0
37.2676 453.0
37.3345 323.0
37.4013 217.0
37.4682 194.0
37.535 195.0
37.6019 196.0
37.6687 164.0
37.7355 158.0
37.8024 230.0
37.8692 348.0
37.9361 378.0
38.0029 299.0
38.0698 226.0
38.1366 213.0
38.2035 307.0
38.2703 492.0
38.3371 566.0
38.404 534.0
38.4708 602.0
38.5377 380.0
38.6045 284.0
38.6714 245.0
38.7382 313.0
38.8051 566.0
38.8719 500.0
38.9388 589.0
39.0056 649.0
39.0724 696.0
39.1393 658.0
39.2061 589.0
39.273 447.0
39.3398 425.0
39.4067 309.0
39.4735 326.0
39.5404 301.0
39.6072 470.0
39.6741 372.0
39.7409 353.0
39.8077 243.0
39.8746 277.0
39.9414 287.0
40.0083 385.0
40.0751 482.0
40.142 429.0
40.2088 333.0
40.2757 326.0
40.3425 524.0
40.4093 711.0
40.4762 476.0
40.543 323.0
40.6099 309.0
40.6767 362.0
40.7436 622.0
40.8104 795.0
40.8773 805.0
40.9441 824.0
41.011 540.0
41.0778 356.0
41.1446 227.0
41.2115 178.0
41.2783 168.0
41.3452 155.0
41.412 153.0
41.4789 152.0
41.5457 151.0
41.6126 160.0
41.6794 149.0
41.7462 150.0
41.8131 174.0
41.8799 214.0
41.9468 264.0
42.0136 385.0
42.0805 529.0
42.1473 597.0
42.2142 663.0
42.281 668.0
42.3479 501.0
42.4147 338.0
42.4815 254.0
42.5484 305.0
42.6152 556.0
42.6821 443.0
42.7489 370.0
42.8158 248.0
42.8826 224.0
42.9495 210.0
43.0163 251.0
43.0831 274.0
43.15 260.0
43.2168 334.0
43.2837 271.0
43.3505 276.0
43.4174 248.0
43.4842 213.0
43.5511 165.0
43.6179 185.0
43.6848 172.0
43.7516 161.0
43.8184 186.0
43.8853 222.0
43.9521 391.0
44.019 578.0
44.0858 474.0
44.1527 388.0
44.2195 264.0
44.2864 342.0
44.3532 396.0
44.4201 615.0
44.4869 736.0
44.5537 531.0
44.6206 325.0
44.6874 329.0
44.7543 298.0
44.8211 447.0
44.888 480.0
44.9548 503.0
45.0217 371.0
45.0885 307.0
45.1553 197.0
45.2222 213.0
45.289 240.0
45.3559 226.0
45.4227 195.0
45.4896 191.0
45.5564 268.0
45.6233 287.0
45.6901 220.0
45.757 220.0
45.8238 168.0
45.8906 183.0
45.9575 237.0
46.0243 357.0
46.0912 381.0
46.158 310.0
46.2249 267.0
46.2917 300.0
46.3586 533.0
46.4254 618.0
46.4922 526.0
46.5591 465.0
46.6259 331.0
46.6928 322.0
46.7596 306.0
46.8265 290.0
46.8933 344.0
46.9602 341.0
47.027 292.0
47.0939 286.0
47.1607 213.0
47.2275 251.0
47.2944 386.0
47.3612 400.0
47.4281 323.0
47.4949 253.0
47.5618 236.0
47.6286 302.0
47.6955 329.0
47.7623 413.0
47.8291 487.0
47.896 430.0
47.9628 599.0
48.0297 393.0
48.0965 290.0
48.1634 285.0
48.2302 279.0
48.2971 347.0
48.3639 329.0
48.4308 347.0
48.4976 487.0
48.5644 473.0
48.6313 466.0
48.6981 423.0
48.765 401.0
48.8318 398.0
48.8987 342.0
48.9655 342.0
49.0324 280.0
49.0992 388.0
49.1661 384.0
49.2329 331.0
49.2997 251.0
49.3666 173.0
49.4334 153.0
49.5003 149.0
49.5671 149.0
49.634 148.0
49.7008 158.0
49.7677 162.0
49.8345 220.0
49.9013 365.0
49.9682 322.0
50.035 350.0
50.1019 324.0
50.1687 229.0
50.2356 233.0
50.3024 198.0
50.3693 154.0
50.4361 149.0
50.503 170.0
50.5698 176.0
50.6366 165.0
50.7035 165.0
50.7703 169.0
50.8372 186.0
50.904 231.0
50.9709 200.0
51.0377 259.0
51.1046 301.0
51.1714 215.0
51.2382 261.0
51.3051 220.0
51.3719 167.0
51.4388 159.0
51.5056 150.0
51.5725 158.0
51.6393 177.0
51.7062 192.0
51.773 310.0
51.8399 350.0
51.9067 320.0
51.9735 408.0
52.0404 498.0
52.1072 460.0
52.1741 479.0
52.2409 339.0
52.3078 333.0
52.3746 326.0
52.4415 295.0
52.5083 335.0
52.5751 243.0
52.642 283.0
52.7088 276.0
52.7757 372.0
52.8425 292.0
52.9094 284.0
52.9762 331.0
53.0431 219.0
53.1099 209.0
53.1768 220.0
53.2436 294.0
53.3104 353.0
53.3773 372.0
53.4441 301.0
53.511 417.0
53.5778 445.0
53.6447 309.0
53.7115 311.0
53.7784 382.0
53.8452 445.0
53.9121 535.0
53.9789 656.0
54.0457 680.0
54.1126 545.0
54.1794 576.0
54.2463 545.0
54.3131 573.0
54.38 459.0
54.4468 432.0
54.5137 381.0
54.5805 315.0
54.6473 244.0
54.7142 208.0
54.781 183.0
54.8479 192.0
54.9147 197.0
54.9816 227.0
55.0484 210.0
55.1153 350.0
55.1821 380.0
55.249 284.0
55.3158 298.0
55.3826 233.0
55.4495 158.0
55.5163 154.0
55.5832 146.0
55.65 161.0
55.7169 164.0
55.7837 170.0
55.8506 194.0
55.9174 313.0
55.9842 384.0
56.0511 361.0
56.1179 277.0
56.1848 251.0
56.2516 199.0
56.3185 162.0
56.3853 167.0
56.4522 205.0
56.519 270.0
56.5859 251.0
56.6527 294.0
56.7195 361.0
56.7864 321.0
56.8532 247.0
56.9201 253.0
56.9869 258.0
57.0538 278.0
57.1206 237.0
57.1875 304.0
57.2543 264.0
57.3212 211.0
57.388 215.0
57.4548 238.0
57.5217 241.0
57.5885 308.0
57.6554 335.0
57.7222 345.0
57.7891 242.0
57.8559 242.0
57.9228 222.0
57.9896 251.0
58.0564 201.0
58.1233 196.0
58.1901 222.0
58.257 251.0
58.3238 279.0
58.3907 276.0
58.4575 268.0
58.5244 259.0
58.5912 238.0
58.6581 209.0
58.7249 158.0
58.7917 181.0
58.8586 197.0
58.9254 279.0
58.9923 235.0
59.0591 214.0
59.126 221.0
59.1928 247.0
59.2597 258.0
59.3265 275.0
59.3933 222.0
59.4602 236.0
59.527 268.0
59.5939 310.0
59.6607 290.0
59.7276 364.0
59.7944 378.0
59.8613 377.0
59.9281 293.0
59.995 302.0
60.0618 211.0
60.1286 215.0
60.1955 233.0
60.2623 211.0
60.3292 209.0
60.396 211.0
60.4629 194.0
60.5297 197.0
60.5966 233.0
60.6634 344.0
60.7302 490.0
60.7971 477.0
60.8639 575.0
60.9308 408.0
60.9976 420.0
61.0645 407.0
61.1313 449.0
61.1982 369.0
61.265 301.0
61.3319 323.0
61.3987 245.0
61.4655 254.0
61.5324 366.0
61.5992 366.0
61.6661 305.0
61.7329 275.0
61.7998 236.0
61.8666 228.0
61.9335 267.0
62.0003 319.0
62.0672 331.0
62.134 329.0
62.2008 324.0
62.2677 266.0
62.3345 248.0
62.4014 288.0
62.4682 328.0
62.5351 308.0
62.6019 305.0
62.6688 360.0
62.7356 349.0
62.8024 386.0
62.8693 308.0
62.9361 302.0
63.003 280.0
63.0698 239.0
63.1367 264.0
63.2035 226.0
63.2704 229.0
63.3372 244.0
63.4041 208.0
63.4709 194.0
63.5377 231.0
63.6046 250.0
63.6714 241.0
63.7383 272.0
63.8051 193.0
63.872 193.0
63.9388 190.0
64.0057 258.0
64.0725 304.0
64.1393 275.0
64.2062 237.0
64.273 261.0
64.3399 222.0
64.4067 184.0
64.4736 155.0
64.5404 153.0
64.6073 159.0
64.6741 153.0
64.741 183.0
64.8078 144.0
64.8746 157.0
64.9415 183.0
65.0083 231.0
65.0752 223.0
65.142 217.0
65.2089 243.0
65.2757 172.0
65.3426 176.0
65.4094 207.0
65.4762 287.0
65.5431 224.0
65.6099 205.0
65.6768 254.0
65.7436 303.0
65.8105 277.0
65.8773 274.0
65.9442 334.0
66.011 315.0
66.0779 337.0
66.1447 271.0
66.2115 297.0
66.2784 259.0
66.3452 260.0
66.4121 196.0
66.4789 178.0
66.5458 169.0
66.6126 155.0
66.6795 158.0
66.7463 123.0
66.8132 113.0
66.88 142.0
66.9468 145.0
67.0137 133.0
67.0805 131.0
67.1474 131.0
67.2142 208.0
67.2811 188.0
67.3479 163.0
67.4148 195.0
67.4816 207.0
67.5484 181.0
67.6153 176.0
67.6821 168.0
67.749 199.0
67.8158 186.0
67.8827 224.0
67.9495 196.0
68.0164 164.0
68.0832 160.0
68.1501 151.0
68.2169 189.0
68.2837 203.0
68.3506 222.0
68.4174 250.0
68.4843 297.0
68.5511 303.0
68.618 256.0
68.6848 273.0
68.7517 295.0
68.8185 241.0
68.8853 166.0
68.9522 179.0
69.019 151.0
69.0859 155.0
69.1527 170.0
69.2196 185.0
69.2864 204.0
69.3533 208.0
69.4201 191.0
69.487 178.0
69.5538 189.0
69.6206 177.0
69.6875 174.0
69.7543 215.0
69.8212 182.0
69.888 173.0
69.9549 211.0
70.0217 196.0
70.0886 199.0
70.1554 221.0
70.2222 207.0
70.2891 232.0
70.3559 271.0
70.4228 278.0
70.4896 272.0
70.5565 370.0
70.6233 361.0
70.6902 363.0
70.757 323.0
70.8239 348.0
70.8907 380.0
70.9575 501.0
71.0244 433.0
71.0912 355.0
71.1581 340.0
71.2249 287.0
71.2918 219.0
71.3586 236.0
71.4255 320.0
71.4923 275.0
71.5592 256.0
71.626 223.0
71.6928 239.0
71.7597 292.0
71.8265 340.0
71.8934 369.0
71.9602 322.0
72.0271 285.0
72.0939 311.0
72.1608 270.0
72.2276 309.0
72.2944 302.0
72.3613 304.0
72.4281 406.0
72.495 399.0
72.5618 420.0
72.6287 342.0
72.6955 337.0
72.7624 302.0
72.8292 275.0
72.8961 272.0
72.9629 279.0
73.0297 213.0
73.0966 190.0
73.1634 182.0
73.2303 149.0
73.2971 125.0
73.364 150.0
73.4308 128.0
73.4977 121.0
73.5645 164.0
73.6313 164.0
73.6982 133.0
73.765 175.0
73.8319 191.0
73.8987 226.0
73.9656 212.0
74.0324 264.0
74.0993 284.0
74.1661 237.0
74.233 260.0
74.2998 251.0
74.3666 298.0
74.4335 257.0
74.5003 259.0
74.5672 258.0
74.634 286.0
74.7009 246.0
74.7677 224.0
74.8346 237.0
74.9014 230.0
74.9683 220.0
75.0351 228.0
75.1019 254.0
75.1688 223.0
75.2356 246.0
75.3025 239.0
75.3693 250.0
75.4362 227.0
75.503 197.0
75.5699 208.0
75.6367 270.0
75.7035 288.0
75.7704 301.0
75.8372 335.0
75.9041 253.0
75.9709 293.0
76.0378 251.0
76.1046 244.0
76.1715 189.0
76.2383 197.0
76.3052 177.0
76.372 173.0
76.4388 153.0
76.5057 178.0
76.5725 183.0
76.6394 176.0
76.7062 159.0
76.7731 188.0
76.8399 161.0
76.9068 144.0
76.9736 158.0
77.0404 154.0
77.1073 136.0
77.1741 147.0
77.241 152.0
77.3078 173.0
77.3747 147.0
77.4415 158.0
77.5084 139.0
77.5752 120.0
77.6421 138.0
77.7089 179.0
77.7757 146.0
77.8426 158.0
77.9094 160.0
77.9763 176.0
78.0431 167.0
78.11 159.0
78.1768 205.0
78.2437 191.0
78.3105 194.0
78.3773 201.0
78.4442 250.0
78.511 236.0
78.5779 220.0
78.6447 272.0
78.7116 243.0
78.7784 255.0
78.8453 210.0
78.9121 242.0
78.979 231.0
79.0458 219.0
79.1126 242.0
79.1795 244.0
79.2463 231.0
79.3132 203.0
79.38 216.0
79.4469 240.0
79.5137 228.0
79.5806 251.0
79.6474 229.0
79.7143 295.0
79.7811 239.0
79.8479 250.0
79.9148 245.0
79.9816 217.0
80.0485 228.0
80.1153 241.0
80.1822 223.0
80.249 222.0
80.3159 239.0
80.3827 226.0
80.4495 223.0
80.5164 230.0
80.5832 264.0
80.6501 259.0
80.7169 247.0
80.7838 246.0
80.8506 239.0
80.9175 207.0
80.9843 243.0
81.0512 191.0
81.118 219.0
81.1848 189.0
81.2517 194.0
81.3185 196.0
81.3854 183.0
81.4522 180.0
81.5191 181.0
81.5859 191.0
81.6528 200.0
81.7196 180.0
81.7864 168.0
81.8533 160.0
81.9201 152.0
81.987 180.0
82.0538 168.0
82.1207 190.0
82.1875 183.0
82.2544 194.0
82.3212 184.0
82.3881 197.0
82.4549 191.0
82.5217 203.0
82.5886 208.0
82.6554 220.0
82.7223 199.0
82.7891 219.0
82.856 211.0
82.9228 200.0
82.9897 184.0
83.0565 174.0
83.1233 180.0
83.1902 181.0
83.257 164.0
83.3239 173.0
83.3907 176.0
83.4576 149.0
83.5244 143.0
83.5913 151.0
83.6581 132.0
83.725 122.0
83.7918 136.0
83.8586 153.0
83.9255 178.0
83.9923 159.0
84.0592 176.0
84.126 150.0
84.1929 180.0
84.2597 167.0
84.3266 144.0
84.3934 141.0
84.4603 174.0
84.5271 167.0
84.5939 161.0
84.6608 165.0
84.7276 162.0
84.7945 149.0
84.8613 139.0
84.9282 150.0
84.995 199.0
85.0619 170.0
85.1287 153.0
85.1955 153.0
85.2624 159.0
85.3292 142.0
85.3961 149.0
85.4629 148.0
85.5298 157.0
85.5966 149.0
85.6635 149.0
85.7303 135.0
85.7972 150.0
85.864 141.0
85.9308 143.0
85.9977 145.0
86.0645 163.0
86.1314 143.0
86.1982 157.0
86.2651 161.0
86.3319 182.0
86.3988 169.0
86.4656 190.0
86.5324 151.0
86.5993 170.0
86.6661 165.0
86.733 135.0
86.7998 165.0
86.8667 151.0
86.9335 164.0
87.0004 162.0
87.0672 174.0
87.1341 166.0
87.2009 172.0
87.2677 152.0
87.3346 148.0
87.4014 166.0
87.4683 147.0
87.5351 167.0
87.602 152.0
87.6688 123.0
87.7357 147.0
87.8025 133.0
87.8693 166.0
87.9362 125.0
88.003 148.0
88.0699 137.0
88.1367 155.0
88.2036 152.0
88.2704 175.0
88.3373 135.0
88.4041 149.0
88.471 129.0
88.5378 116.0
88.6046 137.0
88.6715 110.0
88.7383 114.0
88.8052 130.0
88.872 148.0
88.9389 133.0
89.0057 121.0
89.0726 118.0
89.1394 126.0
89.2063 116.0
89.2731 112.0
89.3399 111.0
89.4068 132.0
89.4736 116.0
89.5405 132.0
89.6073 128.0
89.6742 145.0
89.741 126.0
89.8079 137.0
89.8747 153.0
89.9415 145.0