File: code/XRD_Analysis/Zeolites/data_files/SAPO-14/assynth/20241028_SAPO-14-3-assynth-Probe-1.xy
4.98146 945.0
5.0483 1012.0
5.11515 1017.0
5.18199 902.0
5.24884 969.0
5.31568 910.0
5.38253 875.0
5.44937 851.0
5.51622 866.0
5.58306 804.0
5.64991 864.0
5.71675 790.0
5.7836 810.0
5.85044 744.0
5.91729 771.0
5.98413 788.0
6.05098 751.0
6.11782 697.0
6.18467 783.0
6.25151 754.0
6.31836 791.0
6.3852 741.0
6.45205 759.0
6.51889 756.0
6.58574 719.0
6.65258 690.0
6.71943 746.0
6.78627 715.0
6.85312 693.0
6.91996 708.0
6.98681 670.0
7.05365 625.0
7.1205 641.0
7.18734 669.0
7.25419 615.0
7.32103 642.0
7.38788 679.0
7.45472 679.0
7.52157 657.0
7.58841 656.0
7.65526 647.0
7.7221 651.0
7.78895 631.0
7.85579 660.0
7.92264 647.0
7.98948 668.0
8.05633 696.0
8.12317 673.0
8.19002 664.0
8.25686 650.0
8.32371 674.0
8.39055 735.0
8.4574 816.0
8.52424 1039.0
8.59109 1168.0
8.65793 1511.0
8.72478 2522.0
8.79162 5429.0
8.85847 14622.0
8.92532 29164.0
8.99216 12565.0
9.05901 2944.0
9.12585 1401.0
9.1927 1035.0
9.25954 864.0
9.32639 869.0
9.39323 1418.0
9.46008 1597.0
9.52692 745.0
9.59377 549.0
9.66061 556.0
9.72746 534.0
9.7943 534.0
9.86115 539.0
9.92799 522.0
9.99484 503.0
10.0617 487.0
10.1285 447.0
10.1954 445.0
10.2622 456.0
10.3291 448.0
10.3959 517.0
10.4628 485.0
10.5296 480.0
10.5964 514.0
10.6633 527.0
10.7301 506.0
10.797 550.0
10.8638 663.0
10.9307 1076.0
10.9975 2773.0
11.0644 7280.0
11.1312 5305.0
11.198 1487.0
11.2649 598.0
11.3317 520.0
11.3986 457.0
11.4654 428.0
11.5323 459.0
11.5991 396.0
11.666 414.0
11.7328 432.0
11.7997 377.0
11.8665 410.0
11.9333 370.0
12.0002 389.0
12.067 370.0
12.1339 399.0
12.2007 364.0
12.2676 441.0
12.3344 373.0
12.4013 418.0
12.4681 449.0
12.5349 449.0
12.6018 414.0
12.6686 463.0
12.7355 491.0
12.8023 602.0
12.8692 1067.0
12.936 3605.0
13.0029 9447.0
13.0697 3028.0
13.1366 757.0
13.2034 904.0
13.2702 2676.0
13.3371 4248.0
13.4039 1141.0
13.4708 467.0
13.5376 424.0
13.6045 363.0
13.6713 383.0
13.7382 441.0
13.805 481.0
13.8719 370.0
13.9387 350.0
14.0055 333.0
14.0724 332.0
14.1392 341.0
14.2061 311.0
14.2729 303.0
14.3398 316.0
14.4066 308.0
14.4735 329.0
14.5403 365.0
14.6071 441.0
14.674 556.0
14.7408 711.0
14.8077 647.0
14.8745 395.0
14.9414 325.0
15.0082 353.0
15.0751 376.0
15.1419 357.0
15.2088 407.0
15.2756 372.0
15.3424 353.0
15.4093 406.0
15.4761 407.0
15.543 473.0
15.6098 697.0
15.6767 1699.0
15.7435 4819.0
15.8104 5165.0
15.8772 6335.0
15.944 2413.0
16.0109 679.0
16.0777 407.0
16.1446 370.0
16.2114 321.0
16.2783 289.0
16.3451 286.0
16.412 290.0
16.4788 284.0
16.5457 300.0
16.6125 278.0
16.6793 253.0
16.7462 291.0
16.813 287.0
16.8799 290.0
16.9467 268.0
17.0136 268.0
17.0804 283.0
17.1473 294.0
17.2141 299.0
17.2809 282.0
17.3478 309.0
17.4146 284.0
17.4815 344.0
17.5483 330.0
17.6152 326.0
17.682 412.0
17.7489 689.0
17.8157 1630.0
17.8826 3884.0
17.9494 5028.0
18.0162 2354.0
18.0831 839.0
18.1499 458.0
18.2168 358.0
18.2836 297.0
18.3505 309.0
18.4173 293.0
18.4842 277.0
18.551 367.0
18.6179 620.0
18.6847 1219.0
18.7515 754.0
18.8184 279.0
18.8852 292.0
18.9521 339.0
19.0189 443.0
19.0858 787.0
19.1526 815.0
19.2195 427.0
19.2863 270.0
19.3531 286.0
19.42 260.0
19.4868 226.0
19.5537 262.0
19.6205 251.0
19.6874 241.0
19.7542 239.0
19.8211 251.0
19.8879 262.0
19.9548 243.0
20.0216 247.0
20.0884 245.0
20.1553 254.0
20.2221 270.0
20.289 433.0
20.3558 716.0
20.4227 487.0
20.4895 289.0
20.5564 293.0
20.6232 349.0
20.69 717.0
20.7569 2580.0
20.8237 4433.0
20.8906 1589.0
20.9574 438.0
21.0243 338.0
21.0911 282.0
21.158 291.0
21.2248 328.0
21.2917 318.0
21.3585 372.0
21.4253 395.0
21.4922 556.0
21.559 1052.0
21.6259 1289.0
21.6927 2165.0
21.7596 5500.0
21.8264 4461.0
21.8933 1567.0
21.9601 724.0
22.0269 927.0
22.0938 2105.0
22.1606 5197.0
22.2275 4372.0
22.2943 3132.0
22.3612 3737.0
22.428 3779.0
22.4949 4315.0
22.5617 7311.0
22.6286 10186.0
22.6954 8037.0
22.7622 8985.0
22.8291 4989.0
22.8959 1386.0
22.9628 589.0
23.0296 495.0
23.0965 486.0
23.1633 572.0
23.2302 448.0
23.297 394.0
23.3639 314.0
23.4307 285.0
23.4975 251.0
23.5644 258.0
23.6312 326.0
23.6981 423.0
23.7649 753.0
23.8318 684.0
23.8986 356.0
23.9655 251.0
24.0323 222.0
24.0991 219.0
24.166 239.0
24.2328 213.0
24.2997 229.0
24.3665 201.0
24.4334 233.0
24.5002 219.0
24.5671 227.0
24.6339 247.0
24.7008 203.0
24.7676 226.0
24.8344 212.0
24.9013 220.0
24.9681 225.0
25.035 243.0
25.1018 270.0
25.1687 305.0
25.2355 377.0
25.3024 716.0
25.3692 1262.0
25.436 820.0
25.5029 391.0
25.5697 320.0
25.6366 308.0
25.7034 411.0
25.7703 532.0
25.8371 449.0
25.904 449.0
25.9708 750.0
26.0377 2226.0
26.1045 4553.0
26.1713 4294.0
26.2382 2774.0
26.305 1182.0
26.3719 724.0
26.4387 826.0
26.5056 716.0
26.5724 522.0
26.6393 471.0
26.7061 331.0
26.773 287.0
26.8398 333.0
26.9066 394.0
26.9735 443.0
27.0403 866.0
27.1072 1568.0
27.174 1204.0
27.2409 550.0
27.3077 308.0
27.3746 286.0
27.4414 270.0
27.5082 362.0
27.5751 855.0
27.6419 1612.0
27.7088 1086.0
27.7756 539.0
27.8425 418.0
27.9093 316.0
27.9762 285.0
28.043 313.0
28.1099 434.0
28.1767 428.0
28.2435 335.0
28.3104 257.0
28.3772 266.0
28.4441 271.0
28.5109 356.0
28.5778 463.0
28.6446 727.0
28.7115 918.0
28.7783 1414.0
28.8451 1068.0
28.912 1017.0
28.9788 2329.0
29.0457 1905.0
29.1125 918.0
29.1794 410.0
29.2462 397.0
29.3131 586.0
29.3799 1583.0
29.4468 3702.0
29.5136 5350.0
29.5804 3999.0
29.6473 2150.0
29.7141 1861.0
29.781 1329.0
29.8478 771.0
29.9147 548.0
29.9815 756.0
30.0484 1237.0
30.1152 1798.0
30.182 1581.0
30.2489 2278.0
30.3157 2494.0
30.3826 1497.0
30.4494 619.0
30.5163 435.0
30.5831 445.0
30.65 711.0
30.7168 1964.0
30.7837 4984.0
30.8505 4870.0
30.9173 4041.0
30.9842 1947.0
31.051 785.0
31.1179 703.0
31.1847 969.0
31.2516 850.0
31.3184 566.0
31.3853 420.0
31.4521 284.0
31.519 266.0
31.5858 252.0
31.6526 240.0
31.7195 229.0
31.7863 273.0
31.8532 373.0
31.92 389.0
31.9869 528.0
32.0537 785.0
32.1206 1354.0
32.1874 933.0
32.2542 514.0
32.3211 391.0
32.3879 579.0
32.4548 831.0
32.5216 929.0
32.5885 1085.0
32.6553 699.0
32.7222 377.0
32.789 304.0
32.8559 235.0
32.9227 246.0
32.9895 278.0
33.0564 469.0
33.1232 785.0
33.1901 910.0
33.2569 767.0
33.3238 537.0
33.3906 396.0
33.4575 569.0
33.5243 944.0
33.5911 1101.0
33.658 1895.0
33.7248 1908.0
33.7917 1266.0
33.8585 532.0
33.9254 401.0
33.9922 266.0
34.0591 268.0
34.1259 246.0
34.1928 299.0
34.2596 592.0
34.3264 613.0
34.3933 460.0
34.4601 223.0
34.527 198.0
34.5938 188.0
34.6607 165.0
34.7275 189.0
34.7944 191.0
34.8612 211.0
34.928 333.0
34.9949 592.0
35.0617 875.0
35.1286 712.0
35.1954 454.0
35.2623 297.0
35.3291 195.0
35.396 230.0
35.4628 373.0
35.5297 1080.0
35.5965 1624.0
35.6633 1104.0
35.7302 651.0
35.797 440.0
35.8639 314.0
35.9307 262.0
35.9976 391.0
36.0644 523.0
36.1313 431.0
36.1981 294.0
36.265 308.0
36.3318 447.0
36.3986 771.0
36.4655 775.0
36.5323 569.0
36.5992 391.0
36.666 368.0
36.7329 403.0
36.7997 315.0
36.8666 229.0
36.9334 204.0
37.0002 244.0
37.0671 345.0
37.1339 426.0
37.2008 460.0
37.2676 570.0
37.3345 360.0
37.4013 287.0
37.4682 241.0
37.535 212.0
37.6019 206.0
37.6687 184.0
37.7355 185.0
37.8024 236.0
37.8692 409.0
37.9361 443.0
38.0029 331.0
38.0698 247.0
38.1366 209.0
38.2035 366.0
38.2703 513.0
38.3371 563.0
38.404 583.0
38.4708 619.0
38.5377 477.0
38.6045 356.0
38.6714 275.0
38.7382 331.0
38.8051 460.0
38.8719 835.0
38.9388 904.0
39.0056 734.0
39.0724 590.0
39.1393 622.0
39.2061 720.0
39.273 623.0
39.3398 588.0
39.4067 494.0
39.4735 391.0
39.5404 305.0
39.6072 347.0
39.6741 448.0
39.7409 397.0
39.8077 378.0
39.8746 289.0
39.9414 321.0
40.0083 372.0
40.0751 414.0
40.142 568.0
40.2088 451.0
40.2757 495.0
40.3425 725.0
40.4093 756.0
40.4762 533.0
40.543 367.0
40.6099 333.0
40.6767 417.0
40.7436 487.0
40.8104 799.0
40.8773 917.0
40.9441 1019.0
41.011 710.0
41.0778 531.0
41.1446 294.0
41.2115 235.0
41.2783 177.0
41.3452 168.0
41.412 189.0
41.4789 136.0
41.5457 145.0
41.6126 153.0
41.6794 144.0
41.7462 147.0
41.8131 192.0
41.8799 201.0
41.9468 207.0
42.0136 283.0
42.0805 442.0
42.1473 678.0
42.2142 659.0
42.281 701.0
42.3479 795.0
42.4147 501.0
42.4815 493.0
42.5484 534.0
42.6152 628.0
42.6821 493.0
42.7489 347.0
42.8158 209.0
42.8826 207.0
42.9495 192.0
43.0163 297.0
43.0831 356.0
43.15 318.0
43.2168 389.0
43.2837 299.0
43.3505 308.0
43.4174 232.0
43.4842 219.0
43.5511 213.0
43.6179 157.0
43.6848 175.0
43.7516 172.0
43.8184 224.0
43.8853 331.0
43.9521 487.0
44.019 485.0
44.0858 529.0
44.1527 472.0
44.2195 351.0
44.2864 292.0
44.3532 332.0
44.4201 553.0
44.4869 821.0
44.5537 720.0
44.6206 578.0
44.6874 434.0
44.7543 394.0
44.8211 567.0
44.888 548.0
44.9548 599.0
45.0217 425.0
45.0885 341.0
45.1553 224.0
45.2222 217.0
45.289 259.0
45.3559 255.0
45.4227 213.0
45.4896 213.0
45.5564 323.0
45.6233 301.0
45.6901 280.0
45.757 192.0
45.8238 200.0
45.8906 216.0
45.9575 314.0
46.0243 440.0
46.0912 342.0
46.158 304.0
46.2249 235.0
46.2917 243.0
46.3586 358.0
46.4254 645.0
46.4922 585.0
46.5591 589.0
46.6259 440.0
46.6928 291.0
46.7596 330.0
46.8265 398.0
46.8933 353.0
46.9602 354.0
47.027 285.0
47.0939 294.0
47.1607 321.0
47.2275 284.0
47.2944 322.0
47.3612 396.0
47.4281 348.0
47.4949 322.0
47.5618 267.0
47.6286 315.0
47.6955 393.0
47.7623 394.0
47.8291 625.0
47.896 560.0
47.9628 617.0
48.0297 489.0
48.0965 410.0
48.1634 259.0
48.2302 306.0
48.2971 346.0
48.3639 391.0
48.4308 367.0
48.4976 494.0
48.5644 611.0
48.6313 504.0
48.6981 465.0
48.765 446.0
48.8318 315.0
48.8987 270.0
48.9655 379.0
49.0324 338.0
49.0992 388.0
49.1661 361.0
49.2329 349.0
49.2997 278.0
49.3666 223.0
49.4334 158.0
49.5003 131.0
49.5671 131.0
49.634 139.0
49.7008 179.0
49.7677 169.0
49.8345 247.0
49.9013 378.0
49.9682 366.0
50.035 311.0
50.1019 310.0
50.1687 274.0
50.2356 220.0
50.3024 217.0
50.3693 191.0
50.4361 190.0
50.503 175.0
50.5698 183.0
50.6366 165.0
50.7035 145.0
50.7703 158.0
50.8372 192.0
50.904 211.0
50.9709 224.0
51.0377 238.0
51.1046 306.0
51.1714 267.0
51.2382 251.0
51.3051 274.0
51.3719 204.0
51.4388 191.0
51.5056 133.0
51.5725 173.0
51.6393 196.0
51.7062 246.0
51.773 358.0
51.8399 376.0
51.9067 431.0
51.9735 502.0
52.0404 504.0
52.1072 495.0
52.1741 476.0
52.2409 377.0
52.3078 381.0
52.3746 324.0
52.4415 292.0
52.5083 314.0
52.5751 290.0
52.642 246.0
52.7088 328.0
52.7757 414.0
52.8425 370.0
52.9094 386.0
52.9762 342.0
53.0431 252.0
53.1099 238.0
53.1768 231.0
53.2436 302.0
53.3104 335.0
53.3773 386.0
53.4441 498.0
53.511 486.0
53.5778 510.0
53.6447 381.0
53.7115 414.0
53.7784 406.0
53.8452 435.0
53.9121 597.0
53.9789 686.0
54.0457 867.0
54.1126 656.0
54.1794 708.0
54.2463 641.0
54.3131 616.0
54.38 433.0
54.4468 443.0
54.5137 474.0
54.5805 408.0
54.6473 308.0
54.7142 267.0
54.781 255.0
54.8479 206.0
54.9147 230.0
54.9816 270.0
55.0484 238.0
55.1153 310.0
55.1821 365.0
55.249 400.0
55.3158 319.0
55.3826 293.0
55.4495 271.0
55.5163 179.0
55.5832 186.0
55.65 162.0
55.7169 155.0
55.7837 181.0
55.8506 209.0
55.9174 404.0
55.9842 391.0
56.0511 361.0
56.1179 348.0
56.1848 263.0
56.2516 190.0
56.3185 207.0
56.3853 196.0
56.4522 189.0
56.519 236.0
56.5859 280.0
56.6527 290.0
56.7195 316.0
56.7864 406.0
56.8532 330.0
56.9201 321.0
56.9869 253.0
57.0538 286.0
57.1206 310.0
57.1875 275.0
57.2543 325.0
57.3212 262.0
57.388 225.0
57.4548 227.0
57.5217 207.0
57.5885 316.0
57.6554 370.0
57.7222 391.0
57.7891 335.0
57.8559 289.0
57.9228 240.0
57.9896 269.0
58.0564 238.0
58.1233 237.0
58.1901 257.0
58.257 226.0
58.3238 241.0
58.3907 239.0
58.4575 255.0
58.5244 289.0
58.5912 275.0
58.6581 266.0
58.7249 241.0
58.7917 219.0
58.8586 255.0
58.9254 247.0
58.9923 325.0
59.0591 248.0
59.126 251.0
59.1928 258.0
59.2597 282.0
59.3265 304.0
59.3933 282.0
59.4602 275.0
59.527 285.0
59.5939 329.0
59.6607 382.0
59.7276 389.0
59.7944 411.0
59.8613 392.0
59.9281 323.0
59.995 334.0
60.0618 271.0
60.1286 236.0
60.1955 251.0
60.2623 225.0
60.3292 246.0
60.396 244.0
60.4629 223.0
60.5297 201.0
60.5966 226.0
60.6634 292.0
60.7302 347.0
60.7971 493.0
60.8639 617.0
60.9308 525.0
60.9976 555.0
61.0645 474.0
61.1313 541.0
61.1982 535.0
61.265 418.0
61.3319 398.0
61.3987 440.0
61.4655 334.0
61.5324 339.0
61.5992 350.0
61.6661 396.0
61.7329 330.0
61.7998 262.0
61.8666 285.0
61.9335 275.0
62.0003 278.0
62.0672 361.0
62.134 330.0
62.2008 403.0
62.2677 376.0
62.3345 330.0
62.4014 391.0
62.4682 418.0
62.5351 371.0
62.6019 404.0
62.6688 411.0
62.7356 440.0
62.8024 450.0
62.8693 393.0
62.9361 388.0
63.003 320.0
63.0698 322.0
63.1367 269.0
63.2035 242.0
63.2704 263.0
63.3372 290.0
63.4041 237.0
63.4709 258.0
63.5377 302.0
63.6046 263.0
63.6714 231.0
63.7383 251.0
63.8051 240.0
63.872 263.0
63.9388 240.0
64.0057 246.0
64.0725 300.0
64.1393 300.0
64.2062 259.0
64.273 293.0
64.3399 273.0
64.4067 240.0
64.4736 230.0
64.5404 195.0
64.6073 185.0
64.6741 230.0
64.741 217.0
64.8078 205.0
64.8746 219.0
64.9415 201.0
65.0083 216.0
65.0752 250.0
65.142 262.0
65.2089 224.0
65.2757 238.0
65.3426 212.0
65.4094 224.0
65.4762 216.0
65.5431 293.0
65.6099 308.0
65.6768 261.0
65.7436 325.0
65.8105 346.0
65.8773 313.0
65.9442 328.0
66.011 358.0
66.0779 379.0
66.1447 379.0
66.2115 318.0
66.2784 298.0
66.3452 351.0
66.4121 235.0
66.4789 199.0
66.5458 201.0
66.6126 164.0
66.6795 191.0
66.7463 194.0
66.8132 173.0
66.88 173.0
66.9468 150.0
67.0137 145.0
67.0805 147.0
67.1474 170.0
67.2142 172.0
67.2811 228.0
67.3479 198.0
67.4148 192.0
67.4816 210.0
67.5484 220.0
67.6153 212.0
67.6821 213.0
67.749 212.0
67.8158 225.0
67.8827 236.0
67.9495 193.0
68.0164 193.0
68.0832 189.0
68.1501 177.0
68.2169 193.0
68.2837 196.0
68.3506 231.0
68.4174 288.0
68.4843 302.0
68.5511 344.0
68.618 368.0
68.6848 317.0
68.7517 346.0
68.8185 342.0
68.8853 254.0
68.9522 219.0
69.019 216.0
69.0859 174.0
69.1527 165.0
69.2196 211.0
69.2864 188.0
69.3533 240.0
69.4201 248.0
69.487 221.0
69.5538 167.0
69.6206 178.0
69.6875 179.0
69.7543 186.0
69.8212 184.0
69.888 191.0
69.9549 231.0
70.0217 267.0
70.0886 222.0
70.1554 229.0
70.2222 248.0
70.2891 272.0
70.3559 264.0
70.4228 324.0
70.4896 293.0
70.5565 319.0
70.6233 396.0
70.6902 386.0
70.757 415.0
70.8239 434.0
70.8907 520.0
70.9575 512.0
71.0244 464.0
71.0912 464.0
71.1581 415.0
71.2249 310.0
71.2918 275.0
71.3586 269.0
71.4255 302.0
71.4923 323.0
71.5592 309.0
71.626 266.0
71.6928 266.0
71.7597 308.0
71.8265 376.0
71.8934 400.0
71.9602 417.0
72.0271 355.0
72.0939 313.0
72.1608 321.0
72.2276 369.0
72.2944 389.0
72.3613 349.0
72.4281 411.0
72.495 498.0
72.5618 444.0
72.6287 383.0
72.6955 416.0
72.7624 336.0
72.8292 308.0
72.8961 333.0
72.9629 307.0
73.0297 251.0
73.0966 230.0
73.1634 203.0
73.2303 188.0
73.2971 162.0
73.364 141.0
73.4308 154.0
73.4977 134.0
73.5645 157.0
73.6313 167.0
73.6982 179.0
73.765 165.0
73.8319 175.0
73.8987 207.0
73.9656 203.0
74.0324 239.0
74.0993 284.0
74.1661 309.0
74.233 268.0
74.2998 286.0
74.3666 238.0
74.4335 276.0
74.5003 313.0
74.5672 302.0
74.634 306.0
74.7009 297.0
74.7677 272.0
74.8346 247.0
74.9014 264.0
74.9683 276.0
75.0351 251.0
75.1019 192.0
75.1688 243.0
75.2356 267.0
75.3025 247.0
75.3693 236.0
75.4362 274.0
75.503 219.0
75.5699 233.0
75.6367 248.0
75.7035 275.0
75.7704 301.0
75.8372 375.0
75.9041 283.0
75.9709 273.0
76.0378 304.0
76.1046 291.0
76.1715 256.0
76.2383 189.0
76.3052 182.0
76.372 193.0
76.4388 143.0
76.5057 148.0
76.5725 162.0
76.6394 162.0
76.7062 168.0
76.7731 176.0
76.8399 160.0
76.9068 185.0
76.9736 167.0
77.0404 142.0
77.1073 148.0
77.1741 138.0
77.241 135.0
77.3078 161.0
77.3747 147.0
77.4415 133.0
77.5084 123.0
77.5752 130.0
77.6421 116.0
77.7089 133.0
77.7757 152.0
77.8426 172.0
77.9094 146.0
77.9763 180.0
78.0431 190.0
78.11 174.0
78.1768 190.0
78.2437 191.0
78.3105 178.0
78.3773 200.0
78.4442 248.0
78.511 240.0
78.5779 225.0
78.6447 217.0
78.7116 235.0
78.7784 246.0
78.8453 216.0
78.9121 247.0
78.979 236.0
79.0458 219.0
79.1126 220.0
79.1795 245.0
79.2463 282.0
79.3132 235.0
79.38 188.0
79.4469 256.0
79.5137 255.0
79.5806 213.0
79.6474 238.0
79.7143 243.0
79.7811 228.0
79.8479 243.0
79.9148 232.0
79.9816 236.0
80.0485 259.0
80.1153 235.0
80.1822 258.0
80.249 186.0
80.3159 227.0
80.3827 215.0
80.4495 209.0
80.5164 227.0
80.5832 236.0
80.6501 198.0
80.7169 216.0
80.7838 248.0
80.8506 256.0
80.9175 236.0
80.9843 205.0
81.0512 232.0
81.118 207.0
81.1848 189.0
81.2517 186.0
81.3185 164.0
81.3854 157.0
81.4522 177.0
81.5191 201.0
81.5859 174.0
81.6528 175.0
81.7196 173.0
81.7864 179.0
81.8533 141.0
81.9201 131.0
81.987 154.0
82.0538 128.0
82.1207 164.0
82.1875 144.0
82.2544 167.0
82.3212 161.0
82.3881 154.0
82.4549 163.0
82.5217 189.0
82.5886 220.0
82.6554 179.0
82.7223 177.0
82.7891 180.0
82.856 180.0
82.9228 169.0
82.9897 166.0
83.0565 177.0
83.1233 168.0
83.1902 180.0
83.257 162.0
83.3239 147.0
83.3907 138.0
83.4576 165.0
83.5244 113.0
83.5913 108.0
83.6581 104.0
83.725 121.0
83.7918 112.0
83.8586 119.0
83.9255 122.0
83.9923 160.0
84.0592 144.0
84.126 135.0
84.1929 146.0
84.2597 147.0
84.3266 136.0
84.3934 128.0
84.4603 114.0
84.5271 119.0
84.5939 128.0
84.6608 132.0
84.7276 99.0
84.7945 133.0
84.8613 121.0
84.9282 142.0
84.995 145.0
85.0619 173.0
85.1287 179.0
85.1955 166.0
85.2624 142.0
85.3292 150.0
85.3961 134.0
85.4629 160.0
85.5298 131.0
85.5966 154.0
85.6635 141.0
85.7303 138.0
85.7972 153.0
85.864 160.0
85.9308 149.0
85.9977 154.0
86.0645 141.0
86.1314 146.0
86.1982 146.0
86.2651 121.0
86.3319 154.0
86.3988 134.0
86.4656 166.0
86.5324 160.0
86.5993 184.0
86.6661 144.0
86.733 136.0
86.7998 152.0
86.8667 164.0
86.9335 153.0
87.0004 132.0
87.0672 162.0
87.1341 145.0
87.2009 177.0
87.2677 154.0
87.3346 166.0
87.4014 169.0
87.4683 157.0
87.5351 147.0
87.602 138.0
87.6688 144.0
87.7357 142.0
87.8025 150.0
87.8693 158.0
87.9362 120.0
88.003 136.0
88.0699 134.0
88.1367 152.0
88.2036 118.0
88.2704 141.0
88.3373 160.0
88.4041 137.0
88.471 120.0
88.5378 136.0
88.6046 120.0
88.6715 129.0
88.7383 110.0
88.8052 127.0
88.872 137.0
88.9389 139.0
89.0057 127.0
89.0726 103.0
89.1394 116.0
89.2063 132.0
89.2731 117.0
89.3399 97.0
89.4068 116.0
89.4736 118.0
89.5405 146.0
89.6073 153.0
89.6742 113.0
89.741 135.0
89.8079 135.0
89.8747 143.0
89.9415 123.0