File: code/XRD_Analysis/Zeolites/data_files/SAPO-14/assynth/20241028_SAPO-14-3-assynth-Probe-3.xy
4.98146 993.0
5.0483 1005.0
5.11515 925.0
5.18199 922.0
5.24884 914.0
5.31568 912.0
5.38253 939.0
5.44937 900.0
5.51622 989.0
5.58306 883.0
5.64991 926.0
5.71675 926.0
5.7836 980.0
5.85044 992.0
5.91729 972.0
5.98413 980.0
6.05098 1127.0
6.11782 1205.0
6.18467 1223.0
6.25151 1178.0
6.31836 1137.0
6.3852 997.0
6.45205 899.0
6.51889 866.0
6.58574 793.0
6.65258 789.0
6.71943 789.0
6.78627 779.0
6.85312 692.0
6.91996 723.0
6.98681 715.0
7.05365 712.0
7.1205 728.0
7.18734 731.0
7.25419 688.0
7.32103 677.0
7.38788 686.0
7.45472 659.0
7.52157 653.0
7.58841 634.0
7.65526 614.0
7.7221 658.0
7.78895 627.0
7.85579 637.0
7.92264 645.0
7.98948 644.0
8.05633 651.0
8.12317 716.0
8.19002 641.0
8.25686 648.0
8.32371 677.0
8.39055 717.0
8.4574 716.0
8.52424 845.0
8.59109 960.0
8.65793 1259.0
8.72478 1624.0
8.79162 2805.0
8.85847 6015.0
8.92532 15528.0
8.99216 26149.0
9.05901 14347.0
9.12585 3371.0
9.1927 1596.0
9.25954 1085.0
9.32639 884.0
9.39323 1309.0
9.46008 2675.0
9.52692 3489.0
9.59377 989.0
9.66061 543.0
9.72746 543.0
9.7943 531.0
9.86115 540.0
9.92799 483.0
9.99484 507.0
10.0617 477.0
10.1285 506.0
10.1954 418.0
10.2622 506.0
10.3291 448.0
10.3959 448.0
10.4628 491.0
10.5296 470.0
10.5964 456.0
10.6633 482.0
10.7301 514.0
10.797 532.0
10.8638 549.0
10.9307 656.0
10.9975 1070.0
11.0644 2644.0
11.1312 4863.0
11.198 3947.0
11.2649 1265.0
11.3317 613.0
11.3986 508.0
11.4654 512.0
11.5323 501.0
11.5991 470.0
11.666 471.0
11.7328 450.0
11.7997 506.0
11.8665 471.0
11.9333 488.0
12.0002 479.0
12.067 489.0
12.1339 472.0
12.2007 506.0
12.2676 492.0
12.3344 498.0
12.4013 490.0
12.4681 517.0
12.5349 533.0
12.6018 494.0
12.6686 492.0
12.7355 568.0
12.8023 759.0
12.8692 816.0
12.936 1214.0
13.0029 3889.0
13.0697 6453.0
13.1366 2600.0
13.2034 771.0
13.2702 989.0
13.3371 2421.0
13.4039 2931.0
13.4708 1024.0
13.5376 443.0
13.6045 394.0
13.6713 380.0
13.7382 383.0
13.805 432.0
13.8719 507.0
13.9387 386.0
14.0055 417.0
14.0724 388.0
14.1392 364.0
14.2061 348.0
14.2729 345.0
14.3398 335.0
14.4066 329.0
14.4735 349.0
14.5403 280.0
14.6071 345.0
14.674 395.0
14.7408 518.0
14.8077 653.0
14.8745 508.0
14.9414 344.0
15.0082 337.0
15.0751 352.0
15.1419 342.0
15.2088 382.0
15.2756 358.0
15.3424 403.0
15.4093 394.0
15.4761 371.0
15.543 415.0
15.6098 493.0
15.6767 750.0
15.7435 1887.0
15.8104 3685.0
15.8772 4385.0
15.944 4831.0
16.0109 2595.0
16.0777 760.0
16.1446 448.0
16.2114 373.0
16.2783 365.0
16.3451 362.0
16.412 357.0
16.4788 348.0
16.5457 350.0
16.6125 339.0
16.6793 348.0
16.7462 345.0
16.813 362.0
16.8799 331.0
16.9467 361.0
17.0136 354.0
17.0804 325.0
17.1473 323.0
17.2141 367.0
17.2809 372.0
17.3478 394.0
17.4146 451.0
17.4815 550.0
17.5483 575.0
17.6152 514.0
17.682 524.0
17.7489 604.0
17.8157 1211.0
17.8826 2354.0
17.9494 4108.0
18.0162 4471.0
18.0831 2557.0
18.1499 951.0
18.2168 517.0
18.2836 399.0
18.3505 349.0
18.4173 314.0
18.4842 314.0
18.551 365.0
18.6179 406.0
18.6847 754.0
18.7515 965.0
18.8184 578.0
18.8852 363.0
18.9521 378.0
19.0189 521.0
19.0858 685.0
19.1526 817.0
19.2195 657.0
19.2863 396.0
19.3531 320.0
19.42 285.0
19.4868 263.0
19.5537 286.0
19.6205 252.0
19.6874 266.0
19.7542 297.0
19.8211 322.0
19.8879 313.0
19.9548 292.0
20.0216 297.0
20.0884 303.0
20.1553 297.0
20.2221 295.0
20.289 364.0
20.3558 612.0
20.4227 794.0
20.4895 1439.0
20.5564 1956.0
20.6232 1180.0
20.69 583.0
20.7569 1013.0
20.8237 2666.0
20.8906 3243.0
20.9574 1275.0
21.0243 457.0
21.0911 341.0
21.158 353.0
21.2248 324.0
21.2917 339.0
21.3585 339.0
21.4253 362.0
21.4922 422.0
21.559 651.0
21.6259 1025.0
21.6927 1458.0
21.7596 2974.0
21.8264 4534.0
21.8933 2929.0
21.9601 1192.0
22.0269 930.0
22.0938 1272.0
22.1606 2539.0
22.2275 4234.0
22.2943 3754.0
22.3612 2807.0
22.428 3226.0
22.4949 3521.0
22.5617 4243.0
22.6286 7119.0
22.6954 8938.0
22.7622 7701.0
22.8291 6743.0
22.8959 3627.0
22.9628 1260.0
23.0296 903.0
23.0965 706.0
23.1633 639.0
23.2302 596.0
23.297 490.0
23.3639 467.0
23.4307 417.0
23.4975 371.0
23.5644 352.0
23.6312 387.0
23.6981 402.0
23.7649 488.0
23.8318 706.0
23.8986 650.0
23.9655 367.0
24.0323 351.0
24.0991 318.0
24.166 332.0
24.2328 319.0
24.2997 346.0
24.3665 329.0
24.4334 307.0
24.5002 335.0
24.5671 330.0
24.6339 357.0
24.7008 315.0
24.7676 346.0
24.8344 373.0
24.9013 367.0
24.9681 590.0
25.035 1084.0
25.1018 1112.0
25.1687 573.0
25.2355 416.0
25.3024 477.0
25.3692 850.0
25.436 1136.0
25.5029 805.0
25.5697 538.0
25.6366 416.0
25.7034 473.0
25.7703 731.0
25.8371 800.0
25.904 564.0
25.9708 597.0
26.0377 1012.0
26.1045 2636.0
26.1713 4365.0
26.2382 4260.0
26.305 2683.0
26.3719 1271.0
26.4387 813.0
26.5056 849.0
26.5724 658.0
26.6393 539.0
26.7061 451.0
26.773 364.0
26.8398 397.0
26.9066 449.0
26.9735 492.0
27.0403 583.0
27.1072 1162.0
27.174 1855.0
27.2409 1504.0
27.3077 779.0
27.3746 428.0
27.4414 349.0
27.5082 396.0
27.5751 647.0
27.6419 1158.0
27.7088 1392.0
27.7756 917.0
27.8425 548.0
27.9093 436.0
27.9762 396.0
28.043 324.0
28.1099 357.0
28.1767 528.0
28.2435 555.0
28.3104 400.0
28.3772 336.0
28.4441 286.0
28.5109 373.0
28.5778 433.0
28.6446 578.0
28.7115 808.0
28.7783 1033.0
28.8451 1300.0
28.912 1152.0
28.9788 1649.0
29.0457 2234.0
29.1125 1734.0
29.1794 879.0
29.2462 599.0
29.3131 571.0
29.3799 885.0
29.4468 1893.0
29.5136 3689.0
29.5804 4841.0
29.6473 3569.0
29.7141 2215.0
29.781 1793.0
29.8478 1224.0
29.9147 724.0
29.9815 706.0
30.0484 897.0
30.1152 1375.0
30.182 1741.0
30.2489 1635.0
30.3157 2155.0
30.3826 2519.0
30.4494 1866.0
30.5163 1669.0
30.5831 1187.0
30.65 814.0
30.7168 1064.0
30.7837 2633.0
30.8505 4440.0
30.9173 4327.0
30.9842 3277.0
31.051 1771.0
31.1179 1238.0
31.1847 1310.0
31.2516 1194.0
31.3184 946.0
31.3853 672.0
31.4521 472.0
31.519 365.0
31.5858 394.0
31.6526 331.0
31.7195 345.0
31.7863 353.0
31.8532 335.0
31.92 402.0
31.9869 447.0
32.0537 571.0
32.1206 886.0
32.1874 1162.0
32.2542 891.0
32.3211 597.0
32.3879 487.0
32.4548 732.0
32.5216 835.0
32.5885 926.0
32.6553 877.0
32.7222 690.0
32.789 387.0
32.8559 356.0
32.9227 352.0
32.9895 308.0
33.0564 399.0
33.1232 587.0
33.1901 776.0
33.2569 938.0
33.3238 739.0
33.3906 535.0
33.4575 473.0
33.5243 644.0
33.5911 925.0
33.658 1333.0
33.7248 1977.0
33.7917 1927.0
33.8585 1263.0
33.9254 628.0
33.9922 381.0
34.0591 306.0
34.1259 294.0
34.1928 321.0
34.2596 467.0
34.3264 727.0
34.3933 689.0
34.4601 478.0
34.527 307.0
34.5938 268.0
34.6607 248.0
34.7275 236.0
34.7944 256.0
34.8612 282.0
34.928 321.0
34.9949 403.0
35.0617 720.0
35.1286 863.0
35.1954 704.0
35.2623 555.0
35.3291 441.0
35.396 387.0
35.4628 398.0
35.5297 617.0
35.5965 1277.0
35.6633 1466.0
35.7302 969.0
35.797 657.0
35.8639 522.0
35.9307 412.0
35.9976 397.0
36.0644 565.0
36.1313 698.0
36.1981 514.0
36.265 420.0
36.3318 410.0
36.3986 590.0
36.4655 929.0
36.5323 1009.0
36.5992 740.0
36.666 472.0
36.7329 466.0
36.7997 433.0
36.8666 371.0
36.9334 279.0
37.0002 258.0
37.0671 279.0
37.1339 395.0
37.2008 446.0
37.2676 510.0
37.3345 485.0
37.4013 382.0
37.4682 305.0
37.535 262.0
37.6019 236.0
37.6687 266.0
37.7355 199.0
37.8024 284.0
37.8692 307.0
37.9361 399.0
38.0029 419.0
38.0698 378.0
38.1366 309.0
38.2035 276.0
38.2703 341.0
38.3371 536.0
38.404 551.0
38.4708 622.0
38.5377 644.0
38.6045 474.0
38.6714 354.0
38.7382 355.0
38.8051 414.0
38.8719 555.0
38.9388 731.0
39.0056 836.0
39.0724 841.0
39.1393 731.0
39.2061 774.0
39.273 748.0
39.3398 596.0
39.4067 516.0
39.4735 451.0
39.5404 391.0
39.6072 406.0
39.6741 457.0
39.7409 491.0
39.8077 379.0
39.8746 336.0
39.9414 304.0
40.0083 396.0
40.0751 436.0
40.142 509.0
40.2088 516.0
40.2757 474.0
40.3425 572.0
40.4093 879.0
40.4762 837.0
40.543 667.0
40.6099 426.0
40.6767 398.0
40.7436 440.0
40.8104 649.0
40.8773 848.0
40.9441 887.0
41.011 912.0
41.0778 686.0
41.1446 471.0
41.2115 322.0
41.2783 231.0
41.3452 185.0
41.412 206.0
41.4789 207.0
41.5457 205.0
41.6126 173.0
41.6794 198.0
41.7462 217.0
41.8131 221.0
41.8799 209.0
41.9468 196.0
42.0136 274.0
42.0805 353.0
42.1473 547.0
42.2142 658.0
42.281 627.0
42.3479 723.0
42.4147 693.0
42.4815 576.0
42.5484 506.0
42.6152 695.0
42.6821 784.0
42.7489 631.0
42.8158 493.0
42.8826 373.0
42.9495 315.0
43.0163 316.0
43.0831 319.0
43.15 381.0
43.2168 393.0
43.2837 416.0
43.3505 404.0
43.4174 357.0
43.4842 277.0
43.5511 268.0
43.6179 219.0
43.6848 240.0
43.7516 201.0
43.8184 224.0
43.8853 289.0
43.9521 377.0
44.019 605.0
44.0858 631.0
44.1527 578.0
44.2195 472.0
44.2864 384.0
44.3532 361.0
44.4201 455.0
44.4869 689.0
44.5537 772.0
44.6206 693.0
44.6874 531.0
44.7543 404.0
44.8211 455.0
44.888 582.0
44.9548 637.0
45.0217 654.0
45.0885 467.0
45.1553 379.0
45.2222 286.0
45.289 271.0
45.3559 309.0
45.4227 292.0
45.4896 260.0
45.5564 274.0
45.6233 338.0
45.6901 371.0
45.757 322.0
45.8238 284.0
45.8906 243.0
45.9575 303.0
46.0243 435.0
46.0912 490.0
46.158 489.0
46.2249 384.0
46.2917 358.0
46.3586 363.0
46.4254 489.0
46.4922 704.0
46.5591 656.0
46.6259 570.0
46.6928 455.0
46.7596 363.0
46.8265 406.0
46.8933 414.0
46.9602 419.0
47.027 393.0
47.0939 386.0
47.1607 372.0
47.2275 319.0
47.2944 355.0
47.3612 444.0
47.4281 522.0
47.4949 476.0
47.5618 357.0
47.6286 393.0
47.6955 411.0
47.7623 465.0
47.8291 506.0
47.896 668.0
47.9628 684.0
48.0297 626.0
48.0965 523.0
48.1634 417.0
48.2302 368.0
48.2971 356.0
48.3639 385.0
48.4308 480.0
48.4976 395.0
48.5644 523.0
48.6313 605.0
48.6981 532.0
48.765 502.0
48.8318 507.0
48.8987 370.0
48.9655 358.0
49.0324 423.0
49.0992 403.0
49.1661 415.0
49.2329 409.0
49.2997 362.0
49.3666 300.0
49.4334 262.0
49.5003 253.0
49.5671 201.0
49.634 240.0
49.7008 214.0
49.7677 231.0
49.8345 244.0
49.9013 315.0
49.9682 473.0
50.035 425.0
50.1019 352.0
50.1687 360.0
50.2356 301.0
50.3024 250.0
50.3693 267.0
50.4361 255.0
50.503 264.0
50.5698 219.0
50.6366 243.0
50.7035 205.0
50.7703 288.0
50.8372 285.0
50.904 286.0
50.9709 295.0
51.0377 278.0
51.1046 306.0
51.1714 363.0
51.2382 309.0
51.3051 326.0
51.3719 288.0
51.4388 238.0
51.5056 197.0
51.5725 192.0
51.6393 237.0
51.7062 263.0
51.773 286.0
51.8399 379.0
51.9067 403.0
51.9735 477.0
52.0404 610.0
52.1072 634.0
52.1741 599.0
52.2409 545.0
52.3078 425.0
52.3746 435.0
52.4415 328.0
52.5083 317.0
52.5751 345.0
52.642 302.0
52.7088 301.0
52.7757 348.0
52.8425 430.0
52.9094 394.0
52.9762 438.0
53.0431 373.0
53.1099 318.0
53.1768 347.0
53.2436 318.0
53.3104 330.0
53.3773 414.0
53.4441 502.0
53.511 525.0
53.5778 553.0
53.6447 592.0
53.7115 462.0
53.7784 410.0
53.8452 501.0
53.9121 594.0
53.9789 734.0
54.0457 888.0
54.1126 871.0
54.1794 717.0
54.2463 760.0
54.3131 675.0
54.38 699.0
54.4468 552.0
54.5137 569.0
54.5805 473.0
54.6473 406.0
54.7142 358.0
54.781 297.0
54.8479 274.0
54.9147 290.0
54.9816 309.0
55.0484 288.0
55.1153 258.0
55.1821 413.0
55.249 442.0
55.3158 447.0
55.3826 371.0
55.4495 291.0
55.5163 309.0
55.5832 283.0
55.65 262.0
55.7169 291.0
55.7837 274.0
55.8506 263.0
55.9174 349.0
55.9842 569.0
56.0511 555.0
56.1179 502.0
56.1848 389.0
56.2516 337.0
56.3185 287.0
56.3853 217.0
56.4522 224.0
56.519 282.0
56.5859 300.0
56.6527 340.0
56.7195 365.0
56.7864 429.0
56.8532 433.0
56.9201 362.0
56.9869 335.0
57.0538 317.0
57.1206 358.0
57.1875 323.0
57.2543 332.0
57.3212 348.0
57.388 269.0
57.4548 326.0
57.5217 277.0
57.5885 349.0
57.6554 385.0
57.7222 460.0
57.7891 397.0
57.8559 360.0
57.9228 353.0
57.9896 310.0
58.0564 304.0
58.1233 275.0
58.1901 298.0
58.257 326.0
58.3238 269.0
58.3907 293.0
58.4575 313.0
58.5244 309.0
58.5912 311.0
58.6581 323.0
58.7249 330.0
58.7917 273.0
58.8586 292.0
58.9254 307.0
58.9923 386.0
59.0591 364.0
59.126 330.0
59.1928 353.0
59.2597 331.0
59.3265 349.0
59.3933 365.0
59.4602 381.0
59.527 371.0
59.5939 346.0
59.6607 450.0
59.7276 489.0
59.7944 500.0
59.8613 537.0
59.9281 509.0
59.995 466.0
60.0618 387.0
60.1286 320.0
60.1955 320.0
60.2623 318.0
60.3292 318.0
60.396 285.0
60.4629 302.0
60.5297 297.0
60.5966 290.0
60.6634 328.0
60.7302 373.0
60.7971 498.0
60.8639 634.0
60.9308 672.0
60.9976 619.0
61.0645 533.0
61.1313 516.0
61.1982 601.0
61.265 517.0
61.3319 453.0
61.3987 445.0
61.4655 438.0
61.5324 462.0
61.5992 416.0
61.6661 454.0
61.7329 409.0
61.7998 354.0
61.8666 304.0
61.9335 299.0
62.0003 348.0
62.0672 348.0
62.134 392.0
62.2008 394.0
62.2677 419.0
62.3345 366.0
62.4014 396.0
62.4682 447.0
62.5351 428.0
62.6019 478.0
62.6688 504.0
62.7356 507.0
62.8024 523.0
62.8693 466.0
62.9361 465.0
63.003 402.0
63.0698 398.0
63.1367 344.0
63.2035 309.0
63.2704 308.0
63.3372 341.0
63.4041 351.0
63.4709 302.0
63.5377 323.0
63.6046 332.0
63.6714 314.0
63.7383 336.0
63.8051 315.0
63.872 311.0
63.9388 279.0
64.0057 320.0
64.0725 318.0
64.1393 368.0
64.2062 380.0
64.273 389.0
64.3399 334.0
64.4067 289.0
64.4736 306.0
64.5404 298.0
64.6073 215.0
64.6741 197.0
64.741 253.0
64.8078 245.0
64.8746 241.0
64.9415 246.0
65.0083 223.0
65.0752 258.0
65.142 290.0
65.2089 279.0
65.2757 269.0
65.3426 276.0
65.4094 236.0
65.4762 237.0
65.5431 283.0
65.6099 319.0
65.6768 283.0
65.7436 354.0
65.8105 365.0
65.8773 392.0
65.9442 406.0
66.011 400.0
66.0779 491.0
66.1447 394.0
66.2115 371.0
66.2784 325.0
66.3452 350.0
66.4121 341.0
66.4789 287.0
66.5458 240.0
66.6126 227.0
66.6795 225.0
66.7463 212.0
66.8132 222.0
66.88 221.0
66.9468 239.0
67.0137 205.0
67.0805 175.0
67.1474 204.0
67.2142 240.0
67.2811 250.0
67.3479 301.0
67.4148 229.0
67.4816 269.0
67.5484 252.0
67.6153 262.0
67.6821 251.0
67.749 292.0
67.8158 278.0
67.8827 269.0
67.9495 253.0
68.0164 239.0
68.0832 198.0
68.1501 241.0
68.2169 224.0
68.2837 239.0
68.3506 255.0
68.4174 305.0
68.4843 363.0
68.5511 382.0
68.618 384.0
68.6848 358.0
68.7517 377.0
68.8185 361.0
68.8853 358.0
68.9522 263.0
69.019 251.0
69.0859 237.0
69.1527 228.0
69.2196 196.0
69.2864 238.0
69.3533 251.0
69.4201 237.0
69.487 267.0
69.5538 239.0
69.6206 242.0
69.6875 231.0
69.7543 198.0
69.8212 236.0
69.888 241.0
69.9549 262.0
70.0217 298.0
70.0886 275.0
70.1554 264.0
70.2222 289.0
70.2891 324.0
70.3559 324.0
70.4228 334.0
70.4896 346.0
70.5565 370.0
70.6233 467.0
70.6902 478.0
70.757 408.0
70.8239 462.0
70.8907 495.0
70.9575 571.0
71.0244 586.0
71.0912 509.0
71.1581 503.0
71.2249 425.0
71.2918 334.0
71.3586 348.0
71.4255 304.0
71.4923 379.0
71.5592 357.0
71.626 319.0
71.6928 305.0
71.7597 299.0
71.8265 346.0
71.8934 442.0
71.9602 486.0
72.0271 429.0
72.0939 366.0
72.1608 382.0
72.2276 350.0
72.2944 398.0
72.3613 419.0
72.4281 486.0
72.495 554.0
72.5618 578.0
72.6287 516.0
72.6955 475.0
72.7624 442.0
72.8292 377.0
72.8961 391.0
72.9629 392.0
73.0297 326.0
73.0966 291.0
73.1634 285.0
73.2303 260.0
73.2971 207.0
73.364 166.0
73.4308 163.0
73.4977 190.0
73.5645 150.0
73.6313 193.0
73.6982 210.0
73.765 193.0
73.8319 205.0
73.8987 248.0
73.9656 223.0
74.0324 253.0
74.0993 304.0
74.1661 347.0
74.233 324.0
74.2998 328.0
74.3666 300.0
74.4335 315.0
74.5003 364.0
74.5672 378.0
74.634 396.0
74.7009 377.0
74.7677 307.0
74.8346 348.0
74.9014 309.0
74.9683 340.0
75.0351 347.0
75.1019 326.0
75.1688 301.0
75.2356 370.0
75.3025 308.0
75.3693 282.0
75.4362 322.0
75.503 287.0
75.5699 272.0
75.6367 292.0
75.7035 323.0
75.7704 325.0
75.8372 383.0
75.9041 415.0
75.9709 366.0
76.0378 322.0
76.1046 347.0
76.1715 332.0
76.2383 233.0
76.3052 223.0
76.372 219.0
76.4388 174.0
76.5057 178.0
76.5725 207.0
76.6394 215.0
76.7062 182.0
76.7731 185.0
76.8399 213.0
76.9068 211.0
76.9736 198.0
77.0404 211.0
77.1073 163.0
77.1741 193.0
77.241 199.0
77.3078 199.0
77.3747 191.0
77.4415 174.0
77.5084 190.0
77.5752 168.0
77.6421 133.0
77.7089 169.0
77.7757 207.0
77.8426 198.0
77.9094 192.0
77.9763 216.0
78.0431 223.0
78.11 223.0
78.1768 220.0
78.2437 250.0
78.3105 248.0
78.3773 253.0
78.4442 250.0
78.511 282.0
78.5779 248.0
78.6447 245.0
78.7116 283.0
78.7784 256.0
78.8453 291.0
78.9121 286.0
78.979 260.0
79.0458 271.0
79.1126 288.0
79.1795 297.0
79.2463 294.0
79.3132 263.0
79.38 236.0
79.4469 236.0
79.5137 289.0
79.5806 274.0
79.6474 286.0
79.7143 307.0
79.7811 313.0
79.8479 263.0
79.9148 268.0
79.9816 308.0
80.0485 309.0
80.1153 277.0
80.1822 275.0
80.249 279.0
80.3159 267.0
80.3827 240.0
80.4495 252.0
80.5164 242.0
80.5832 310.0
80.6501 287.0
80.7169 287.0
80.7838 293.0
80.8506 285.0
80.9175 270.0
80.9843 266.0
81.0512 261.0
81.118 266.0
81.1848 237.0
81.2517 194.0
81.3185 224.0
81.3854 237.0
81.4522 207.0
81.5191 219.0
81.5859 222.0
81.6528 212.0
81.7196 222.0
81.7864 209.0
81.8533 173.0
81.9201 178.0
81.987 176.0
82.0538 160.0
82.1207 173.0
82.1875 210.0
82.2544 196.0
82.3212 221.0
82.3881 236.0
82.4549 207.0
82.5217 210.0
82.5886 252.0
82.6554 254.0
82.7223 206.0
82.7891 223.0
82.856 219.0
82.9228 180.0
82.9897 214.0
83.0565 177.0
83.1233 201.0
83.1902 195.0
83.257 209.0
83.3239 165.0
83.3907 172.0
83.4576 158.0
83.5244 165.0
83.5913 152.0
83.6581 159.0
83.725 163.0
83.7918 136.0
83.8586 169.0
83.9255 130.0
83.9923 150.0
84.0592 164.0
84.126 141.0
84.1929 184.0
84.2597 167.0
84.3266 153.0
84.3934 167.0
84.4603 142.0
84.5271 148.0
84.5939 162.0
84.6608 164.0
84.7276 157.0
84.7945 148.0
84.8613 160.0
84.9282 153.0
84.995 166.0
85.0619 184.0
85.1287 223.0
85.1955 219.0
85.2624 181.0
85.3292 182.0
85.3961 169.0
85.4629 181.0
85.5298 166.0
85.5966 196.0
85.6635 173.0
85.7303 153.0
85.7972 185.0
85.864 146.0
85.9308 173.0
85.9977 151.0
86.0645 176.0
86.1314 179.0
86.1982 155.0
86.2651 143.0
86.3319 163.0
86.3988 182.0
86.4656 178.0
86.5324 173.0
86.5993 207.0
86.6661 251.0
86.733 214.0
86.7998 180.0
86.8667 188.0
86.9335 183.0
87.0004 165.0
87.0672 179.0
87.1341 186.0
87.2009 201.0
87.2677 192.0
87.3346 201.0
87.4014 201.0
87.4683 178.0
87.5351 163.0
87.602 206.0
87.6688 167.0
87.7357 174.0
87.8025 139.0
87.8693 166.0
87.9362 174.0
88.003 166.0
88.0699 166.0
88.1367 155.0
88.2036 186.0
88.2704 147.0
88.3373 155.0
88.4041 164.0
88.471 144.0
88.5378 141.0
88.6046 160.0
88.6715 142.0
88.7383 135.0
88.8052 174.0
88.872 161.0
88.9389 141.0
89.0057 153.0
89.0726 161.0
89.1394 139.0
89.2063 144.0
89.2731 133.0
89.3399 139.0
89.4068 153.0
89.4736 158.0
89.5405 159.0
89.6073 155.0
89.6742 164.0
89.741 150.0
89.8079 135.0
89.8747 164.0
89.9415 175.0