File: code/XRD_Analysis/Zeolites/data_files/SAPO-14/assynth/20241028_SAPO-14-3-assynth-Probe-2.xy
4.98146 967.0
5.0483 951.0
5.11515 928.0
5.18199 920.0
5.24884 868.0
5.31568 902.0
5.38253 857.0
5.44937 903.0
5.51622 831.0
5.58306 794.0
5.64991 839.0
5.71675 815.0
5.7836 761.0
5.85044 810.0
5.91729 777.0
5.98413 787.0
6.05098 797.0
6.11782 685.0
6.18467 715.0
6.25151 775.0
6.31836 745.0
6.3852 696.0
6.45205 694.0
6.51889 732.0
6.58574 704.0
6.65258 689.0
6.71943 738.0
6.78627 664.0
6.85312 689.0
6.91996 652.0
6.98681 692.0
7.05365 681.0
7.1205 634.0
7.18734 688.0
7.25419 632.0
7.32103 677.0
7.38788 592.0
7.45472 643.0
7.52157 621.0
7.58841 623.0
7.65526 632.0
7.7221 631.0
7.78895 584.0
7.85579 665.0
7.92264 664.0
7.98948 628.0
8.05633 607.0
8.12317 591.0
8.19002 660.0
8.25686 609.0
8.32371 612.0
8.39055 597.0
8.4574 637.0
8.52424 684.0
8.59109 791.0
8.65793 893.0
8.72478 995.0
8.79162 1657.0
8.85847 3522.0
8.92532 11045.0
8.99216 25391.0
9.05901 10270.0
9.12585 1641.0
9.1927 957.0
9.25954 868.0
9.32639 1051.0
9.39323 2262.0
9.46008 6816.0
9.52692 7546.0
9.59377 982.0
9.66061 550.0
9.72746 556.0
9.7943 464.0
9.86115 542.0
9.92799 495.0
9.99484 501.0
10.0617 486.0
10.1285 442.0
10.1954 436.0
10.2622 442.0
10.3291 453.0
10.3959 417.0
10.4628 455.0
10.5296 481.0
10.5964 490.0
10.6633 458.0
10.7301 476.0
10.797 502.0
10.8638 531.0
10.9307 559.0
10.9975 907.0
11.0644 2305.0
11.1312 5220.0
11.198 3337.0
11.2649 810.0
11.3317 455.0
11.3986 488.0
11.4654 410.0
11.5323 448.0
11.5991 410.0
11.666 424.0
11.7328 412.0
11.7997 386.0
11.8665 411.0
11.9333 393.0
12.0002 403.0
12.067 364.0
12.1339 402.0
12.2007 380.0
12.2676 370.0
12.3344 388.0
12.4013 409.0
12.4681 409.0
12.5349 440.0
12.6018 411.0
12.6686 485.0
12.7355 790.0
12.8023 1605.0
12.8692 1450.0
12.936 1149.0
13.0029 3732.0
13.0697 6328.0
13.1366 1571.0
13.2034 604.0
13.2702 996.0
13.3371 2486.0
13.4039 2677.0
13.4708 638.0
13.5376 436.0
13.6045 353.0
13.6713 357.0
13.7382 403.0
13.805 485.0
13.8719 610.0
13.9387 1045.0
14.0055 1362.0
14.0724 585.0
14.1392 382.0
14.2061 347.0
14.2729 351.0
14.3398 342.0
14.4066 361.0
14.4735 328.0
14.5403 294.0
14.6071 361.0
14.674 389.0
14.7408 537.0
14.8077 658.0
14.8745 504.0
14.9414 351.0
15.0082 341.0
15.0751 305.0
15.1419 354.0
15.2088 358.0
15.2756 369.0
15.3424 342.0
15.4093 382.0
15.4761 358.0
15.543 373.0
15.6098 406.0
15.6767 622.0
15.7435 1728.0
15.8104 3782.0
15.8772 4645.0
15.944 6852.0
16.0109 3760.0
16.0777 807.0
16.1446 381.0
16.2114 350.0
16.2783 320.0
16.3451 297.0
16.412 342.0
16.4788 314.0
16.5457 322.0
16.6125 300.0
16.6793 293.0
16.7462 310.0
16.813 318.0
16.8799 297.0
16.9467 308.0
17.0136 309.0
17.0804 325.0
17.1473 356.0
17.2141 321.0
17.2809 315.0
17.3478 337.0
17.4146 319.0
17.4815 350.0
17.5483 314.0
17.6152 381.0
17.682 382.0
17.7489 501.0
17.8157 1331.0
17.8826 3452.0
17.9494 4527.0
18.0162 4258.0
18.0831 2084.0
18.1499 574.0
18.2168 408.0
18.2836 334.0
18.3505 340.0
18.4173 334.0
18.4842 334.0
18.551 369.0
18.6179 465.0
18.6847 842.0
18.7515 1015.0
18.8184 513.0
18.8852 362.0
18.9521 467.0
19.0189 758.0
19.0858 892.0
19.1526 889.0
19.2195 669.0
19.2863 378.0
19.3531 324.0
19.42 321.0
19.4868 332.0
19.5537 332.0
19.6205 382.0
19.6874 382.0
19.7542 567.0
19.8211 964.0
19.8879 606.0
19.9548 376.0
20.0216 344.0
20.0884 360.0
20.1553 360.0
20.2221 381.0
20.289 463.0
20.3558 798.0
20.4227 1747.0
20.4895 6066.0
20.5564 8624.0
20.6232 3052.0
20.69 770.0
20.7569 1121.0
20.8237 2769.0
20.8906 2920.0
20.9574 906.0
21.0243 460.0
21.0911 376.0
21.158 352.0
21.2248 346.0
21.2917 358.0
21.3585 391.0
21.4253 413.0
21.4922 431.0
21.559 633.0
21.6259 1063.0
21.6927 1473.0
21.7596 3184.0
21.8264 4580.0
21.8933 2446.0
21.9601 940.0
22.0269 1193.0
22.0938 1751.0
22.1606 2382.0
22.2275 4632.0
22.2943 3701.0
22.3612 2457.0
22.428 3019.0
22.4949 2865.0
22.5617 3373.0
22.6286 6079.0
22.6954 8554.0
22.7622 6862.0
22.8291 6419.0
22.8959 2769.0
22.9628 1391.0
23.0296 1650.0
23.0965 1017.0
23.1633 583.0
23.2302 548.0
23.297 454.0
23.3639 384.0
23.4307 381.0
23.4975 317.0
23.5644 342.0
23.6312 335.0
23.6981 360.0
23.7649 457.0
23.8318 727.0
23.8986 614.0
23.9655 429.0
24.0323 353.0
24.0991 310.0
24.166 365.0
24.2328 634.0
24.2997 1595.0
24.3665 1838.0
24.4334 794.0
24.5002 413.0
24.5671 324.0
24.6339 336.0
24.7008 329.0
24.7676 338.0
24.8344 352.0
24.9013 404.0
24.9681 856.0
25.035 3210.0
25.1018 4323.0
25.1687 1924.0
25.2355 487.0
25.3024 466.0
25.3692 744.0
25.436 1159.0
25.5029 735.0
25.5697 402.0
25.6366 408.0
25.7034 691.0
25.7703 1850.0
25.8371 2065.0
25.904 1021.0
25.9708 537.0
26.0377 685.0
26.1045 1959.0
26.1713 4030.0
26.2382 3703.0
26.305 2213.0
26.3719 947.0
26.4387 672.0
26.5056 741.0
26.5724 569.0
26.6393 494.0
26.7061 456.0
26.773 381.0
26.8398 354.0
26.9066 410.0
26.9735 401.0
27.0403 425.0
27.1072 732.0
27.174 1677.0
27.2409 1228.0
27.3077 559.0
27.3746 335.0
27.4414 394.0
27.5082 659.0
27.5751 953.0
27.6419 1364.0
27.7088 1328.0
27.7756 711.0
27.8425 444.0
27.9093 399.0
27.9762 319.0
28.043 369.0
28.1099 525.0
28.1767 808.0
28.2435 970.0
28.3104 726.0
28.3772 431.0
28.4441 325.0
28.5109 347.0
28.5778 431.0
28.6446 651.0
28.7115 745.0
28.7783 980.0
28.8451 1188.0
28.912 956.0
28.9788 1652.0
29.0457 2035.0
29.1125 1274.0
29.1794 572.0
29.2462 415.0
29.3131 417.0
29.3799 713.0
29.4468 1905.0
29.5136 3878.0
29.5804 4787.0
29.6473 2767.0
29.7141 1781.0
29.781 1494.0
29.8478 958.0
29.9147 575.0
29.9815 605.0
30.0484 710.0
30.1152 1136.0
30.182 1555.0
30.2489 1314.0
30.3157 2031.0
30.3826 2774.0
30.4494 3532.0
30.5163 3726.0
30.5831 2138.0
30.65 870.0
30.7168 1026.0
30.7837 2933.0
30.8505 4798.0
30.9173 4615.0
30.9842 3261.0
31.051 2106.0
31.1179 2571.0
31.1847 2603.0
31.2516 1713.0
31.3184 904.0
31.3853 576.0
31.4521 417.0
31.519 594.0
31.5858 793.0
31.6526 583.0
31.7195 365.0
31.7863 308.0
31.8532 333.0
31.92 354.0
31.9869 447.0
32.0537 545.0
32.1206 911.0
32.1874 1200.0
32.2542 917.0
32.3211 574.0
32.3879 472.0
32.4548 698.0
32.5216 789.0
32.5885 991.0
32.6553 829.0
32.7222 528.0
32.789 323.0
32.8559 328.0
32.9227 263.0
32.9895 282.0
33.0564 340.0
33.1232 647.0
33.1901 880.0
33.2569 993.0
33.3238 661.0
33.3906 426.0
33.4575 409.0
33.5243 612.0
33.5911 834.0
33.658 1065.0
33.7248 1835.0
33.7917 1765.0
33.8585 1104.0
33.9254 458.0
33.9922 352.0
34.0591 351.0
34.1259 266.0
34.1928 321.0
34.2596 645.0
34.3264 1366.0
34.3933 1304.0
34.4601 836.0
34.527 428.0
34.5938 376.0
34.6607 444.0
34.7275 423.0
34.7944 443.0
34.8612 488.0
34.928 431.0
34.9949 430.0
35.0617 724.0
35.1286 908.0
35.1954 563.0
35.2623 360.0
35.3291 274.0
35.396 263.0
35.4628 314.0
35.5297 598.0
35.5965 1383.0
35.6633 1211.0
35.7302 860.0
35.797 510.0
35.8639 351.0
35.9307 336.0
35.9976 366.0
36.0644 639.0
36.1313 898.0
36.1981 742.0
36.265 473.0
36.3318 342.0
36.3986 456.0
36.4655 701.0
36.5323 829.0
36.5992 526.0
36.666 398.0
36.7329 400.0
36.7997 365.0
36.8666 280.0
36.9334 233.0
37.0002 243.0
37.0671 331.0
37.1339 402.0
37.2008 488.0
37.2676 462.0
37.3345 462.0
37.4013 397.0
37.4682 288.0
37.535 253.0
37.6019 260.0
37.6687 228.0
37.7355 227.0
37.8024 224.0
37.8692 323.0
37.9361 445.0
38.0029 429.0
38.0698 411.0
38.1366 315.0
38.2035 326.0
38.2703 420.0
38.3371 552.0
38.404 638.0
38.4708 605.0
38.5377 618.0
38.6045 511.0
38.6714 412.0
38.7382 317.0
38.8051 412.0
38.8719 592.0
38.9388 729.0
39.0056 821.0
39.0724 832.0
39.1393 777.0
39.2061 763.0
39.273 697.0
39.3398 542.0
39.4067 534.0
39.4735 436.0
39.5404 528.0
39.6072 566.0
39.6741 585.0
39.7409 491.0
39.8077 416.0
39.8746 316.0
39.9414 309.0
40.0083 331.0
40.0751 449.0
40.142 506.0
40.2088 496.0
40.2757 454.0
40.3425 514.0
40.4093 706.0
40.4762 768.0
40.543 547.0
40.6099 353.0
40.6767 379.0
40.7436 461.0
40.8104 669.0
40.8773 897.0
40.9441 849.0
41.011 866.0
41.0778 607.0
41.1446 436.0
41.2115 261.0
41.2783 250.0
41.3452 199.0
41.412 209.0
41.4789 230.0
41.5457 181.0
41.6126 219.0
41.6794 227.0
41.7462 253.0
41.8131 257.0
41.8799 240.0
41.9468 256.0
42.0136 287.0
42.0805 402.0
42.1473 611.0
42.2142 649.0
42.281 681.0
42.3479 752.0
42.4147 584.0
42.4815 451.0
42.5484 397.0
42.6152 495.0
42.6821 713.0
42.7489 571.0
42.8158 549.0
42.8826 509.0
42.9495 458.0
43.0163 422.0
43.0831 412.0
43.15 436.0
43.2168 536.0
43.2837 657.0
43.3505 588.0
43.4174 509.0
43.4842 386.0
43.5511 292.0
43.6179 250.0
43.6848 203.0
43.7516 198.0
43.8184 224.0
43.8853 250.0
43.9521 391.0
44.019 518.0
44.0858 595.0
44.1527 540.0
44.2195 423.0
44.2864 302.0
44.3532 326.0
44.4201 425.0
44.4869 712.0
44.5537 774.0
44.6206 582.0
44.6874 465.0
44.7543 360.0
44.8211 339.0
44.888 565.0
44.9548 636.0
45.0217 647.0
45.0885 415.0
45.1553 351.0
45.2222 280.0
45.289 263.0
45.3559 262.0
45.4227 252.0
45.4896 226.0
45.5564 264.0
45.6233 355.0
45.6901 317.0
45.757 295.0
45.8238 208.0
45.8906 219.0
45.9575 228.0
46.0243 342.0
46.0912 473.0
46.158 450.0
46.2249 333.0
46.2917 280.0
46.3586 305.0
46.4254 522.0
46.4922 760.0
46.5591 592.0
46.6259 560.0
46.6928 400.0
46.7596 397.0
46.8265 389.0
46.8933 402.0
46.9602 414.0
47.027 394.0
47.0939 371.0
47.1607 319.0
47.2275 328.0
47.2944 383.0
47.3612 511.0
47.4281 697.0
47.4949 636.0
47.5618 522.0
47.6286 450.0
47.6955 489.0
47.7623 413.0
47.8291 504.0
47.896 559.0
47.9628 586.0
48.0297 656.0
48.0965 477.0
48.1634 382.0
48.2302 336.0
48.2971 377.0
48.3639 429.0
48.4308 369.0
48.4976 397.0
48.5644 563.0
48.6313 559.0
48.6981 535.0
48.765 679.0
48.8318 869.0
48.8987 683.0
48.9655 604.0
49.0324 501.0
49.0992 431.0
49.1661 463.0
49.2329 395.0
49.2997 369.0
49.3666 333.0
49.4334 217.0
49.5003 251.0
49.5671 403.0
49.634 406.0
49.7008 317.0
49.7677 311.0
49.8345 260.0
49.9013 300.0
49.9682 460.0
50.035 349.0
50.1019 363.0
50.1687 332.0
50.2356 278.0
50.3024 313.0
50.3693 307.0
50.4361 348.0
50.503 305.0
50.5698 299.0
50.6366 288.0
50.7035 363.0
50.7703 616.0
50.8372 532.0
50.904 456.0
50.9709 399.0
51.0377 334.0
51.1046 404.0
51.1714 429.0
51.2382 347.0
51.3051 329.0
51.3719 239.0
51.4388 261.0
51.5056 257.0
51.5725 311.0
51.6393 294.0
51.7062 286.0
51.773 347.0
51.8399 401.0
51.9067 384.0
51.9735 478.0
52.0404 667.0
52.1072 599.0
52.1741 606.0
52.2409 542.0
52.3078 476.0
52.3746 418.0
52.4415 357.0
52.5083 332.0
52.5751 342.0
52.642 330.0
52.7088 317.0
52.7757 380.0
52.8425 439.0
52.9094 443.0
52.9762 548.0
53.0431 614.0
53.1099 498.0
53.1768 504.0
53.2436 480.0
53.3104 446.0
53.3773 491.0
53.4441 488.0
53.511 475.0
53.5778 520.0
53.6447 544.0
53.7115 398.0
53.7784 456.0
53.8452 469.0
53.9121 551.0
53.9789 690.0
54.0457 900.0
54.1126 802.0
54.1794 726.0
54.2463 715.0
54.3131 773.0
54.38 869.0
54.4468 693.0
54.5137 569.0
54.5805 539.0
54.6473 394.0
54.7142 298.0
54.781 273.0
54.8479 289.0
54.9147 268.0
54.9816 292.0
55.0484 289.0
55.1153 288.0
55.1821 367.0
55.249 443.0
55.3158 429.0
55.3826 348.0
55.4495 298.0
55.5163 306.0
55.5832 393.0
55.65 397.0
55.7169 467.0
55.7837 480.0
55.8506 380.0
55.9174 433.0
55.9842 492.0
56.0511 572.0
56.1179 526.0
56.1848 510.0
56.2516 395.0
56.3185 298.0
56.3853 269.0
56.4522 238.0
56.519 246.0
56.5859 339.0
56.6527 315.0
56.7195 342.0
56.7864 461.0
56.8532 373.0
56.9201 318.0
56.9869 339.0
57.0538 323.0
57.1206 354.0
57.1875 358.0
57.2543 354.0
57.3212 349.0
57.388 289.0
57.4548 267.0
57.5217 295.0
57.5885 341.0
57.6554 324.0
57.7222 370.0
57.7891 378.0
57.8559 292.0
57.9228 321.0
57.9896 307.0
58.0564 294.0
58.1233 290.0
58.1901 297.0
58.257 278.0
58.3238 315.0
58.3907 370.0
58.4575 372.0
58.5244 331.0
58.5912 386.0
58.6581 326.0
58.7249 258.0
58.7917 213.0
58.8586 230.0
58.9254 258.0
58.9923 305.0
59.0591 326.0
59.126 319.0
59.1928 318.0
59.2597 319.0
59.3265 378.0
59.3933 460.0
59.4602 450.0
59.527 397.0
59.5939 418.0
59.6607 459.0
59.7276 410.0
59.7944 471.0
59.8613 441.0
59.9281 464.0
59.995 378.0
60.0618 345.0
60.1286 357.0
60.1955 309.0
60.2623 316.0
60.3292 317.0
60.396 258.0
60.4629 320.0
60.5297 242.0
60.5966 299.0
60.6634 320.0
60.7302 486.0
60.7971 657.0
60.8639 725.0
60.9308 669.0
60.9976 595.0
61.0645 580.0
61.1313 566.0
61.1982 682.0
61.265 548.0
61.3319 413.0
61.3987 465.0
61.4655 383.0
61.5324 373.0
61.5992 380.0
61.6661 439.0
61.7329 382.0
61.7998 353.0
61.8666 328.0
61.9335 293.0
62.0003 346.0
62.0672 401.0
62.134 462.0
62.2008 450.0
62.2677 471.0
62.3345 429.0
62.4014 444.0
62.4682 466.0
62.5351 455.0
62.6019 399.0
62.6688 497.0
62.7356 498.0
62.8024 489.0
62.8693 502.0
62.9361 465.0
63.003 406.0
63.0698 364.0
63.1367 350.0
63.2035 290.0
63.2704 307.0
63.3372 340.0
63.4041 326.0
63.4709 325.0
63.5377 330.0
63.6046 344.0
63.6714 302.0
63.7383 303.0
63.8051 326.0
63.872 288.0
63.9388 344.0
64.0057 311.0
64.0725 322.0
64.1393 387.0
64.2062 367.0
64.273 372.0
64.3399 329.0
64.4067 323.0
64.4736 336.0
64.5404 282.0
64.6073 282.0
64.6741 266.0
64.741 231.0
64.8078 268.0
64.8746 237.0
64.9415 256.0
65.0083 276.0
65.0752 288.0
65.142 305.0
65.2089 268.0
65.2757 291.0
65.3426 258.0
65.4094 230.0
65.4762 259.0
65.5431 322.0
65.6099 282.0
65.6768 286.0
65.7436 360.0
65.8105 420.0
65.8773 472.0
65.9442 526.0
66.011 534.0
66.0779 552.0
66.1447 543.0
66.2115 428.0
66.2784 420.0
66.3452 406.0
66.4121 335.0
66.4789 279.0
66.5458 244.0
66.6126 221.0
66.6795 241.0
66.7463 243.0
66.8132 196.0
66.88 257.0
66.9468 371.0
67.0137 454.0
67.0805 354.0
67.1474 360.0
67.2142 397.0
67.2811 364.0
67.3479 297.0
67.4148 272.0
67.4816 277.0
67.5484 230.0
67.6153 292.0
67.6821 278.0
67.749 259.0
67.8158 282.0
67.8827 305.0
67.9495 286.0
68.0164 267.0
68.0832 217.0
68.1501 221.0
68.2169 221.0
68.2837 245.0
68.3506 288.0
68.4174 309.0
68.4843 318.0
68.5511 396.0
68.618 420.0
68.6848 393.0
68.7517 368.0
68.8185 401.0
68.8853 430.0
68.9522 350.0
69.019 298.0
69.0859 280.0
69.1527 273.0
69.2196 290.0
69.2864 271.0
69.3533 256.0
69.4201 264.0
69.487 299.0
69.5538 278.0
69.6206 274.0
69.6875 276.0
69.7543 269.0
69.8212 277.0
69.888 269.0
69.9549 301.0
70.0217 378.0
70.0886 376.0
70.1554 320.0
70.2222 350.0
70.2891 321.0
70.3559 334.0
70.4228 395.0
70.4896 369.0
70.5565 396.0
70.6233 503.0
70.6902 592.0
70.757 644.0
70.8239 613.0
70.8907 669.0
70.9575 769.0
71.0244 763.0
71.0912 620.0
71.1581 512.0
71.2249 458.0
71.2918 368.0
71.3586 331.0
71.4255 358.0
71.4923 409.0
71.5592 334.0
71.626 336.0
71.6928 317.0
71.7597 275.0
71.8265 389.0
71.8934 490.0
71.9602 486.0
72.0271 430.0
72.0939 413.0
72.1608 482.0
72.2276 410.0
72.2944 464.0
72.3613 403.0
72.4281 505.0
72.495 555.0
72.5618 560.0
72.6287 520.0
72.6955 438.0
72.7624 431.0
72.8292 348.0
72.8961 340.0
72.9629 379.0
73.0297 351.0
73.0966 292.0
73.1634 248.0
73.2303 278.0
73.2971 206.0
73.364 219.0
73.4308 184.0
73.4977 190.0
73.5645 179.0
73.6313 225.0
73.6982 256.0
73.765 258.0
73.8319 263.0
73.8987 277.0
73.9656 295.0
74.0324 300.0
74.0993 328.0
74.1661 339.0
74.233 325.0
74.2998 313.0
74.3666 287.0
74.4335 309.0
74.5003 329.0
74.5672 360.0
74.634 358.0
74.7009 378.0
74.7677 347.0
74.8346 342.0
74.9014 338.0
74.9683 339.0
75.0351 339.0
75.1019 366.0
75.1688 350.0
75.2356 391.0
75.3025 338.0
75.3693 367.0
75.4362 309.0
75.503 303.0
75.5699 276.0
75.6367 274.0
75.7035 303.0
75.7704 331.0
75.8372 389.0
75.9041 457.0
75.9709 378.0
76.0378 365.0
76.1046 406.0
76.1715 328.0
76.2383 288.0
76.3052 272.0
76.372 242.0
76.4388 220.0
76.5057 174.0
76.5725 186.0
76.6394 221.0
76.7062 228.0
76.7731 229.0
76.8399 259.0
76.9068 243.0
76.9736 209.0
77.0404 233.0
77.1073 228.0
77.1741 176.0
77.241 167.0
77.3078 194.0
77.3747 193.0
77.4415 195.0
77.5084 208.0
77.5752 213.0
77.6421 192.0
77.7089 173.0
77.7757 213.0
77.8426 221.0
77.9094 243.0
77.9763 225.0
78.0431 266.0
78.11 193.0
78.1768 238.0
78.2437 248.0
78.3105 237.0
78.3773 251.0
78.4442 319.0
78.511 324.0
78.5779 256.0
78.6447 279.0
78.7116 289.0
78.7784 289.0
78.8453 279.0
78.9121 295.0
78.979 280.0
79.0458 285.0
79.1126 276.0
79.1795 323.0
79.2463 339.0
79.3132 304.0
79.38 272.0
79.4469 284.0
79.5137 302.0
79.5806 323.0
79.6474 303.0
79.7143 301.0
79.7811 285.0
79.8479 300.0
79.9148 293.0
79.9816 260.0
80.0485 301.0
80.1153 318.0
80.1822 280.0
80.249 261.0
80.3159 278.0
80.3827 308.0
80.4495 322.0
80.5164 320.0
80.5832 297.0
80.6501 295.0
80.7169 294.0
80.7838 340.0
80.8506 373.0
80.9175 294.0
80.9843 239.0
81.0512 236.0
81.118 261.0
81.1848 252.0
81.2517 248.0
81.3185 223.0
81.3854 248.0
81.4522 235.0
81.5191 230.0
81.5859 245.0
81.6528 258.0
81.7196 240.0
81.7864 226.0
81.8533 197.0
81.9201 193.0
81.987 194.0
82.0538 221.0
82.1207 188.0
82.1875 229.0
82.2544 208.0
82.3212 226.0
82.3881 213.0
82.4549 230.0
82.5217 269.0
82.5886 250.0
82.6554 275.0
82.7223 204.0
82.7891 226.0
82.856 227.0
82.9228 208.0
82.9897 207.0
83.0565 213.0
83.1233 215.0
83.1902 186.0
83.257 211.0
83.3239 191.0
83.3907 177.0
83.4576 151.0
83.5244 173.0
83.5913 180.0
83.6581 169.0
83.725 195.0
83.7918 191.0
83.8586 227.0
83.9255 220.0
83.9923 209.0
84.0592 211.0
84.126 199.0
84.1929 216.0
84.2597 198.0
84.3266 183.0
84.3934 190.0
84.4603 149.0
84.5271 138.0
84.5939 166.0
84.6608 176.0
84.7276 147.0
84.7945 157.0
84.8613 149.0
84.9282 160.0
84.995 199.0
85.0619 190.0
85.1287 215.0
85.1955 212.0
85.2624 207.0
85.3292 182.0
85.3961 183.0
85.4629 180.0
85.5298 181.0
85.5966 185.0
85.6635 166.0
85.7303 162.0
85.7972 190.0
85.864 194.0
85.9308 169.0
85.9977 167.0
86.0645 169.0
86.1314 160.0
86.1982 182.0
86.2651 174.0
86.3319 186.0
86.3988 207.0
86.4656 200.0
86.5324 229.0
86.5993 273.0
86.6661 229.0
86.733 232.0
86.7998 214.0
86.8667 168.0
86.9335 194.0
87.0004 180.0
87.0672 219.0
87.1341 210.0
87.2009 205.0
87.2677 164.0
87.3346 201.0
87.4014 186.0
87.4683 215.0
87.5351 192.0
87.602 158.0
87.6688 182.0
87.7357 162.0
87.8025 175.0
87.8693 169.0
87.9362 195.0
88.003 196.0
88.0699 175.0
88.1367 192.0
88.2036 182.0
88.2704 186.0
88.3373 206.0
88.4041 166.0
88.471 154.0
88.5378 143.0
88.6046 145.0
88.6715 172.0
88.7383 135.0
88.8052 152.0
88.872 152.0
88.9389 134.0
89.0057 175.0
89.0726 164.0
89.1394 131.0
89.2063 133.0
89.2731 138.0
89.3399 154.0
89.4068 137.0
89.4736 144.0
89.5405 164.0
89.6073 164.0
89.6742 166.0
89.741 161.0
89.8079 155.0
89.8747 173.0
89.9415 152.0