File: code/XRD_Analysis/Zeolites/data_files/SAPO-14_SAPO-34_comp/calcined/20241019_SAPO-14_SAPO-34_composite_Probe-2_calc.xy
4.98146 987.0
5.0483 963.0
5.11515 929.0
5.18199 972.0
5.24884 961.0
5.31568 908.0
5.38253 863.0
5.44937 923.0
5.51622 832.0
5.58306 856.0
5.64991 844.0
5.71675 809.0
5.7836 758.0
5.85044 877.0
5.91729 785.0
5.98413 787.0
6.05098 806.0
6.11782 759.0
6.18467 788.0
6.25151 756.0
6.31836 759.0
6.3852 805.0
6.45205 748.0
6.51889 739.0
6.58574 734.0
6.65258 704.0
6.71943 732.0
6.78627 719.0
6.85312 666.0
6.91996 754.0
6.98681 713.0
7.05365 650.0
7.1205 703.0
7.18734 669.0
7.25419 701.0
7.32103 722.0
7.38788 698.0
7.45472 689.0
7.52157 657.0
7.58841 663.0
7.65526 650.0
7.7221 692.0
7.78895 623.0
7.85579 651.0
7.92264 615.0
7.98948 633.0
8.05633 627.0
8.12317 662.0
8.19002 597.0
8.25686 603.0
8.32371 648.0
8.39055 646.0
8.4574 658.0
8.52424 596.0
8.59109 639.0
8.65793 676.0
8.72478 689.0
8.79162 856.0
8.85847 1237.0
8.92532 3290.0
8.99216 6443.0
9.05901 1297.0
9.12585 871.0
9.1927 762.0
9.25954 741.0
9.32639 828.0
9.39323 1208.0
9.46008 2807.0
9.52692 9117.0
9.59377 7359.0
9.66061 1067.0
9.72746 668.0
9.7943 596.0
9.86115 612.0
9.92799 606.0
9.99484 597.0
10.0617 582.0
10.1285 573.0
10.1954 554.0
10.2622 557.0
10.3291 544.0
10.3959 559.0
10.4628 568.0
10.5296 523.0
10.5964 523.0
10.6633 565.0
10.7301 539.0
10.797 542.0
10.8638 612.0
10.9307 639.0
10.9975 621.0
11.0644 567.0
11.1312 617.0
11.198 929.0
11.2649 930.0
11.3317 544.0
11.3986 534.0
11.4654 516.0
11.5323 533.0
11.5991 490.0
11.666 525.0
11.7328 560.0
11.7997 540.0
11.8665 579.0
11.9333 767.0
12.0002 1435.0
12.067 1422.0
12.1339 589.0
12.2007 509.0
12.2676 466.0
12.3344 498.0
12.4013 506.0
12.4681 511.0
12.5349 558.0
12.6018 525.0
12.6686 557.0
12.7355 542.0
12.8023 662.0
12.8692 1021.0
12.936 3071.0
13.0029 4852.0
13.0697 1412.0
13.1366 1205.0
13.2034 2256.0
13.2702 1354.0
13.3371 561.0
13.4039 533.0
13.4708 549.0
13.5376 529.0
13.6045 679.0
13.6713 1003.0
13.7382 2193.0
13.805 1434.0
13.8719 611.0
13.9387 587.0
14.0055 925.0
14.0724 1105.0
14.1392 716.0
14.2061 742.0
14.2729 561.0
14.3398 568.0
14.4066 461.0
14.4735 525.0
14.5403 521.0
14.6071 509.0
14.674 503.0
14.7408 488.0
14.8077 466.0
14.8745 473.0
14.9414 522.0
15.0082 506.0
15.0751 493.0
15.1419 514.0
15.2088 480.0
15.2756 483.0
15.3424 480.0
15.4093 496.0
15.4761 492.0
15.543 622.0
15.6098 998.0
15.6767 898.0
15.7435 529.0
15.8104 507.0
15.8772 512.0
15.944 570.0
16.0109 649.0
16.0777 1337.0
16.1446 2735.0
16.2114 1804.0
16.2783 691.0
16.3451 735.0
16.412 674.0
16.4788 571.0
16.5457 560.0
16.6125 596.0
16.6793 611.0
16.7462 597.0
16.813 516.0
16.8799 485.0
16.9467 487.0
17.0136 500.0
17.0804 548.0
17.1473 533.0
17.2141 541.0
17.2809 554.0
17.3478 550.0
17.4146 581.0
17.4815 584.0
17.5483 620.0
17.6152 615.0
17.682 668.0
17.7489 878.0
17.8157 2011.0
17.8826 3021.0
17.9494 2338.0
18.0162 3848.0
18.0831 2468.0
18.1499 884.0
18.2168 926.0
18.2836 882.0
18.3505 723.0
18.4173 880.0
18.4842 837.0
18.551 617.0
18.6179 566.0
18.6847 575.0
18.7515 632.0
18.8184 599.0
18.8852 601.0
18.9521 660.0
19.0189 987.0
19.0858 1157.0
19.1526 1054.0
19.2195 1102.0
19.2863 783.0
19.3531 651.0
19.42 623.0
19.4868 607.0
19.5537 833.0
19.6205 985.0
19.6874 961.0
19.7542 1070.0
19.8211 1053.0
19.8879 813.0
19.9548 666.0
20.0216 729.0
20.0884 792.0
20.1553 916.0
20.2221 1473.0
20.289 2644.0
20.3558 2527.0
20.4227 1583.0
20.4895 1131.0
20.5564 1465.0
20.6232 1521.0
20.69 2148.0
20.7569 6314.0
20.8237 6912.0
20.8906 2328.0
20.9574 1074.0
21.0243 1121.0
21.0911 1305.0
21.158 1012.0
21.2248 1003.0
21.2917 1168.0
21.3585 1354.0
21.4253 2731.0
21.4922 2523.0
21.559 1459.0
21.6259 1392.0
21.6927 1503.0
21.7596 1400.0
21.8264 1475.0
21.8933 1564.0
21.9601 1182.0
22.0269 1430.0
22.0938 1556.0
22.1606 1309.0
22.2275 1118.0
22.2943 901.0
22.3612 813.0
22.428 830.0
22.4949 845.0
22.5617 1003.0
22.6286 1102.0
22.6954 1302.0
22.7622 1739.0
22.8291 1357.0
22.8959 1334.0
22.9628 2042.0
23.0296 2013.0
23.0965 1424.0
23.1633 1375.0
23.2302 2000.0
23.297 1827.0
23.3639 1375.0
23.4307 1158.0
23.4975 904.0
23.5644 791.0
23.6312 778.0
23.6981 820.0
23.7649 807.0
23.8318 739.0
23.8986 754.0
23.9655 769.0
24.0323 802.0
24.0991 863.0
24.166 975.0
24.2328 1018.0
24.2997 949.0
24.3665 813.0
24.4334 875.0
24.5002 742.0
24.5671 819.0
24.6339 783.0
24.7008 829.0
24.7676 877.0
24.8344 1084.0
24.9013 1267.0
24.9681 1289.0
25.035 2255.0
25.1018 3063.0
25.1687 2364.0
25.2355 1252.0
25.3024 991.0
25.3692 875.0
25.436 908.0
25.5029 992.0
25.5697 902.0
25.6366 824.0
25.7034 853.0
25.7703 949.0
25.8371 903.0
25.904 939.0
25.9708 1057.0
26.0377 1119.0
26.1045 1926.0
26.1713 2958.0
26.2382 2009.0
26.305 1122.0
26.3719 1154.0
26.4387 1445.0
26.5056 1253.0
26.5724 1414.0
26.6393 1743.0
26.7061 1303.0
26.773 1012.0
26.8398 976.0
26.9066 970.0
26.9735 898.0
27.0403 937.0
27.1072 1144.0
27.174 1874.0
27.2409 2062.0
27.3077 1844.0
27.3746 2517.0
27.4414 3429.0
27.5082 2109.0
27.5751 1391.0
27.6419 1239.0
27.7088 1326.0
27.7756 1145.0
27.8425 1026.0
27.9093 1168.0
27.9762 1069.0
28.043 972.0
28.1099 950.0
28.1767 901.0
28.2435 931.0
28.3104 1160.0
28.3772 1366.0
28.4441 1132.0
28.5109 945.0
28.5778 849.0
28.6446 879.0
28.7115 950.0
28.7783 868.0
28.8451 850.0
28.912 842.0
28.9788 838.0
29.0457 833.0
29.1125 1087.0
29.1794 1919.0
29.2462 1735.0
29.3131 1225.0
29.3799 958.0
29.4468 953.0
29.5136 933.0
29.5804 1062.0
29.6473 1243.0
29.7141 2096.0
29.781 2194.0
29.8478 1684.0
29.9147 1206.0
29.9815 1150.0
30.0484 1351.0
30.1152 1421.0
30.182 1231.0
30.2489 1221.0
30.3157 1113.0
30.3826 922.0
30.4494 820.0
30.5163 823.0
30.5831 860.0
30.65 896.0
30.7168 1042.0
30.7837 1453.0
30.8505 3127.0
30.9173 5431.0
30.9842 4771.0
31.051 2840.0
31.1179 1644.0
31.1847 1330.0
31.2516 1672.0
31.3184 2330.0
31.3853 1868.0
31.4521 1126.0
31.519 901.0
31.5858 852.0
31.6526 774.0
31.7195 823.0
31.7863 826.0
31.8532 884.0
31.92 898.0
31.9869 840.0
32.0537 1072.0
32.1206 1201.0
32.1874 886.0
32.2542 728.0
32.3211 711.0
32.3879 695.0
32.4548 616.0
32.5216 725.0
32.5885 754.0
32.6553 763.0
32.7222 728.0
32.789 665.0
32.8559 684.0
32.9227 696.0
32.9895 815.0
33.0564 797.0
33.1232 757.0
33.1901 646.0
33.2569 622.0
33.3238 602.0
33.3906 771.0
33.4575 908.0
33.5243 714.0
33.5911 701.0
33.658 822.0
33.7248 795.0
33.7917 753.0
33.8585 603.0
33.9254 570.0
33.9922 580.0
34.0591 679.0
34.1259 628.0
34.1928 621.0
34.2596 602.0
34.3264 589.0
34.3933 536.0
34.4601 525.0
34.527 511.0
34.5938 522.0
34.6607 573.0
34.7275 645.0
34.7944 786.0
34.8612 978.0
34.928 883.0
34.9949 662.0
35.0617 531.0
35.1286 517.0
35.1954 580.0
35.2623 747.0
35.3291 816.0
35.396 750.0
35.4628 748.0
35.5297 841.0
35.5965 845.0
35.6633 814.0
35.7302 717.0
35.797 596.0
35.8639 568.0
35.9307 538.0
35.9976 560.0
36.0644 569.0
36.1313 588.0
36.1981 723.0
36.265 809.0
36.3318 661.0
36.3986 611.0
36.4655 635.0
36.5323 666.0
36.5992 591.0
36.666 649.0
36.7329 636.0
36.7997 606.0
36.8666 585.0
36.9334 480.0
37.0002 458.0
37.0671 432.0
37.1339 500.0
37.2008 489.0
37.2676 433.0
37.3345 423.0
37.4013 502.0
37.4682 474.0
37.535 455.0
37.6019 414.0
37.6687 434.0
37.7355 433.0
37.8024 398.0
37.8692 380.0
37.9361 351.0
38.0029 372.0
38.0698 393.0
38.1366 408.0
38.2035 387.0
38.2703 465.0
38.3371 464.0
38.404 480.0
38.4708 480.0
38.5377 520.0
38.6045 583.0
38.6714 486.0
38.7382 474.0
38.8051 467.0
38.8719 453.0
38.9388 464.0
39.0056 440.0
39.0724 439.0
39.1393 401.0
39.2061 430.0
39.273 443.0
39.3398 496.0
39.4067 471.0
39.4735 457.0
39.5404 426.0
39.6072 419.0
39.6741 426.0
39.7409 413.0
39.8077 547.0
39.8746 599.0
39.9414 487.0
40.0083 496.0
40.0751 572.0
40.142 561.0
40.2088 538.0
40.2757 426.0
40.3425 410.0
40.4093 396.0
40.4762 392.0
40.543 379.0
40.6099 419.0
40.6767 422.0
40.7436 464.0
40.8104 414.0
40.8773 448.0
40.9441 406.0
41.011 407.0
41.0778 407.0
41.1446 372.0
41.2115 397.0
41.2783 362.0
41.3452 389.0
41.412 356.0
41.4789 381.0
41.5457 361.0
41.6126 395.0
41.6794 411.0
41.7462 400.0
41.8131 459.0
41.8799 485.0
41.9468 490.0
42.0136 467.0
42.0805 422.0
42.1473 429.0
42.2142 420.0
42.281 469.0
42.3479 520.0
42.4147 505.0
42.4815 506.0
42.5484 449.0
42.6152 391.0
42.6821 425.0
42.7489 419.0
42.8158 472.0
42.8826 433.0
42.9495 399.0
43.0163 394.0
43.0831 412.0
43.15 448.0
43.2168 402.0
43.2837 472.0
43.3505 460.0
43.4174 469.0
43.4842 438.0
43.5511 393.0
43.6179 396.0
43.6848 474.0
43.7516 439.0
43.8184 478.0
43.8853 498.0
43.9521 469.0
44.019 416.0
44.0858 397.0
44.1527 402.0
44.2195 417.0
44.2864 443.0
44.3532 424.0
44.4201 445.0
44.4869 413.0
44.5537 425.0
44.6206 418.0
44.6874 379.0
44.7543 420.0
44.8211 426.0
44.888 389.0
44.9548 384.0
45.0217 408.0
45.0885 371.0
45.1553 318.0
45.2222 347.0
45.289 369.0
45.3559 394.0
45.4227 385.0
45.4896 375.0
45.5564 435.0
45.6233 440.0
45.6901 492.0
45.757 440.0
45.8238 409.0
45.8906 387.0
45.9575 369.0
46.0243 377.0
46.0912 391.0
46.158 460.0
46.2249 413.0
46.2917 476.0
46.3586 469.0
46.4254 379.0
46.4922 366.0
46.5591 396.0
46.6259 377.0
46.6928 366.0
46.7596 393.0
46.8265 379.0
46.8933 372.0
46.9602 355.0
47.027 379.0
47.0939 379.0
47.1607 387.0
47.2275 400.0
47.2944 396.0
47.3612 420.0
47.4281 417.0
47.4949 423.0
47.5618 384.0
47.6286 394.0
47.6955 425.0
47.7623 388.0
47.8291 443.0
47.896 458.0
47.9628 431.0
48.0297 398.0
48.0965 422.0
48.1634 488.0
48.2302 482.0
48.2971 440.0
48.3639 426.0
48.4308 377.0
48.4976 389.0
48.5644 410.0
48.6313 381.0
48.6981 446.0
48.765 466.0
48.8318 441.0
48.8987 521.0
48.9655 445.0
49.0324 447.0
49.0992 466.0
49.1661 491.0
49.2329 511.0
49.2997 570.0
49.3666 566.0
49.4334 497.0
49.5003 463.0
49.5671 450.0
49.634 435.0
49.7008 441.0
49.7677 434.0
49.8345 369.0
49.9013 365.0
49.9682 369.0
50.035 380.0
50.1019 344.0
50.1687 332.0
50.2356 365.0
50.3024 355.0
50.3693 370.0
50.4361 340.0
50.503 353.0
50.5698 365.0
50.6366 381.0
50.7035 356.0
50.7703 426.0
50.8372 386.0
50.904 441.0
50.9709 426.0
51.0377 498.0
51.1046 544.0
51.1714 563.0
51.2382 542.0
51.3051 463.0
51.3719 416.0
51.4388 441.0
51.5056 403.0
51.5725 393.0
51.6393 396.0
51.7062 428.0
51.773 434.0
51.8399 453.0
51.9067 392.0
51.9735 349.0
52.0404 354.0
52.1072 366.0
52.1741 372.0
52.2409 423.0
52.3078 391.0
52.3746 398.0
52.4415 392.0
52.5083 430.0
52.5751 333.0
52.642 388.0
52.7088 386.0
52.7757 398.0
52.8425 407.0
52.9094 401.0
52.9762 436.0
53.0431 382.0
53.1099 355.0
53.1768 315.0
53.2436 354.0
53.3104 368.0
53.3773 401.0
53.4441 413.0
53.511 389.0
53.5778 420.0
53.6447 393.0
53.7115 456.0
53.7784 496.0
53.8452 531.0
53.9121 494.0
53.9789 414.0
54.0457 425.0
54.1126 386.0
54.1794 347.0
54.2463 364.0
54.3131 378.0
54.38 386.0
54.4468 365.0
54.5137 334.0
54.5805 378.0
54.6473 379.0
54.7142 334.0
54.781 391.0
54.8479 504.0
54.9147 457.0
54.9816 423.0
55.0484 457.0
55.1153 433.0
55.1821 417.0
55.249 432.0
55.3158 406.0
55.3826 401.0
55.4495 419.0
55.5163 521.0
55.5832 475.0
55.65 465.0
55.7169 429.0
55.7837 424.0
55.8506 446.0
55.9174 354.0
55.9842 381.0
56.0511 413.0
56.1179 492.0
56.1848 519.0
56.2516 434.0
56.3185 395.0
56.3853 368.0
56.4522 360.0
56.519 378.0
56.5859 402.0
56.6527 444.0
56.7195 444.0
56.7864 456.0
56.8532 504.0
56.9201 444.0
56.9869 395.0
57.0538 428.0
57.1206 373.0
57.1875 384.0
57.2543 358.0
57.3212 364.0
57.388 352.0
57.4548 362.0
57.5217 372.0
57.5885 367.0
57.6554 431.0
57.7222 407.0
57.7891 345.0
57.8559 363.0
57.9228 347.0
57.9896 363.0
58.0564 368.0
58.1233 346.0
58.1901 389.0
58.257 331.0
58.3238 342.0
58.3907 322.0
58.4575 376.0
58.5244 340.0
58.5912 332.0
58.6581 351.0
58.7249 341.0
58.7917 351.0
58.8586 338.0
58.9254 326.0
58.9923 322.0
59.0591 333.0
59.126 325.0
59.1928 335.0
59.2597 357.0
59.3265 363.0
59.3933 369.0
59.4602 317.0
59.527 357.0
59.5939 326.0
59.6607 348.0
59.7276 411.0
59.7944 384.0
59.8613 382.0
59.9281 322.0
59.995 370.0
60.0618 416.0
60.1286 392.0
60.1955 386.0
60.2623 411.0
60.3292 400.0
60.396 362.0
60.4629 377.0
60.5297 364.0
60.5966 369.0
60.6634 330.0
60.7302 326.0
60.7971 376.0
60.8639 357.0
60.9308 348.0
60.9976 352.0
61.0645 355.0
61.1313 317.0
61.1982 300.0
61.265 356.0
61.3319 314.0
61.3987 322.0
61.4655 322.0
61.5324 307.0
61.5992 305.0
61.6661 334.0
61.7329 336.0
61.7998 357.0
61.8666 346.0
61.9335 344.0
62.0003 366.0
62.0672 355.0
62.134 328.0
62.2008 330.0
62.2677 325.0
62.3345 330.0
62.4014 339.0
62.4682 302.0
62.5351 315.0
62.6019 290.0
62.6688 275.0
62.7356 334.0
62.8024 341.0
62.8693 322.0
62.9361 308.0
63.003 299.0
63.0698 349.0
63.1367 320.0
63.2035 345.0
63.2704 339.0
63.3372 292.0
63.4041 307.0
63.4709 311.0
63.5377 328.0
63.6046 326.0
63.6714 381.0
63.7383 358.0
63.8051 333.0
63.872 345.0
63.9388 355.0
64.0057 347.0
64.0725 360.0
64.1393 334.0
64.2062 314.0
64.273 307.0
64.3399 300.0
64.4067 330.0
64.4736 306.0
64.5404 319.0
64.6073 317.0
64.6741 305.0
64.741 310.0
64.8078 339.0
64.8746 297.0
64.9415 357.0
65.0083 331.0
65.0752 321.0
65.142 325.0
65.2089 336.0
65.2757 323.0
65.3426 326.0
65.4094 322.0
65.4762 360.0
65.5431 314.0
65.6099 366.0
65.6768 375.0
65.7436 348.0
65.8105 351.0
65.8773 363.0
65.9442 354.0
66.011 337.0
66.0779 332.0
66.1447 328.0
66.2115 368.0
66.2784 334.0
66.3452 328.0
66.4121 286.0
66.4789 342.0
66.5458 351.0
66.6126 331.0
66.6795 325.0
66.7463 301.0
66.8132 338.0
66.88 382.0
66.9468 367.0
67.0137 333.0
67.0805 361.0
67.1474 357.0
67.2142 393.0
67.2811 358.0
67.3479 401.0
67.4148 337.0
67.4816 373.0
67.5484 361.0
67.6153 382.0
67.6821 360.0
67.749 366.0
67.8158 342.0
67.8827 348.0
67.9495 344.0
68.0164 286.0
68.0832 320.0
68.1501 292.0
68.2169 304.0
68.2837 333.0
68.3506 304.0
68.4174 307.0
68.4843 332.0
68.5511 352.0
68.618 333.0
68.6848 286.0
68.7517 300.0
68.8185 307.0
68.8853 272.0
68.9522 279.0
69.019 368.0
69.0859 302.0
69.1527 297.0
69.2196 278.0
69.2864 287.0
69.3533 293.0
69.4201 298.0
69.487 295.0
69.5538 277.0
69.6206 302.0
69.6875 313.0
69.7543 316.0
69.8212 309.0
69.888 340.0
69.9549 353.0
70.0217 322.0
70.0886 304.0
70.1554 315.0
70.2222 330.0
70.2891 330.0
70.3559 333.0
70.4228 345.0
70.4896 379.0
70.5565 363.0
70.6233 289.0
70.6902 344.0
70.757 316.0
70.8239 310.0
70.8907 310.0
70.9575 325.0
71.0244 318.0
71.0912 278.0
71.1581 299.0
71.2249 300.0
71.2918 315.0
71.3586 302.0
71.4255 314.0
71.4923 337.0
71.5592 337.0
71.626 291.0
71.6928 301.0
71.7597 310.0
71.8265 305.0
71.8934 322.0
71.9602 319.0
72.0271 325.0
72.0939 307.0
72.1608 306.0
72.2276 304.0
72.2944 289.0
72.3613 278.0
72.4281 320.0
72.495 290.0
72.5618 301.0
72.6287 278.0
72.6955 263.0
72.7624 268.0
72.8292 268.0
72.8961 241.0
72.9629 271.0
73.0297 284.0
73.0966 264.0
73.1634 290.0
73.2303 306.0
73.2971 299.0
73.364 274.0
73.4308 253.0
73.4977 259.0
73.5645 285.0
73.6313 284.0
73.6982 278.0
73.765 259.0
73.8319 302.0
73.8987 270.0
73.9656 266.0
74.0324 250.0
74.0993 255.0
74.1661 283.0
74.233 271.0
74.2998 277.0
74.3666 257.0
74.4335 250.0
74.5003 271.0
74.5672 289.0
74.634 263.0
74.7009 289.0
74.7677 279.0
74.8346 257.0
74.9014 284.0
74.9683 303.0
75.0351 294.0
75.1019 284.0
75.1688 295.0
75.2356 279.0
75.3025 247.0
75.3693 287.0
75.4362 254.0
75.503 268.0
75.5699 289.0
75.6367 292.0
75.7035 292.0
75.7704 282.0
75.8372 270.0
75.9041 252.0
75.9709 279.0
76.0378 278.0
76.1046 286.0
76.1715 269.0
76.2383 285.0
76.3052 260.0
76.372 264.0
76.4388 289.0
76.5057 263.0
76.5725 254.0
76.6394 251.0
76.7062 223.0
76.7731 273.0
76.8399 248.0
76.9068 269.0
76.9736 261.0
77.0404 238.0
77.1073 235.0
77.1741 266.0
77.241 250.0
77.3078 254.0
77.3747 276.0
77.4415 267.0
77.5084 275.0
77.5752 245.0
77.6421 268.0
77.7089 270.0
77.7757 237.0
77.8426 246.0
77.9094 264.0
77.9763 271.0
78.0431 261.0
78.11 242.0
78.1768 250.0
78.2437 259.0
78.3105 252.0
78.3773 242.0
78.4442 285.0
78.511 275.0
78.5779 229.0
78.6447 222.0
78.7116 224.0
78.7784 231.0
78.8453 200.0
78.9121 252.0
78.979 233.0
79.0458 237.0
79.1126 253.0
79.1795 277.0
79.2463 261.0
79.3132 206.0
79.38 244.0
79.4469 220.0
79.5137 235.0
79.5806 238.0
79.6474 227.0
79.7143 222.0
79.7811 211.0
79.8479 237.0
79.9148 233.0
79.9816 231.0
80.0485 222.0
80.1153 200.0
80.1822 216.0
80.249 227.0
80.3159 220.0
80.3827 207.0
80.4495 242.0
80.5164 206.0
80.5832 212.0
80.6501 230.0
80.7169 225.0
80.7838 226.0
80.8506 207.0
80.9175 244.0
80.9843 236.0
81.0512 205.0
81.118 206.0
81.1848 250.0
81.2517 206.0
81.3185 212.0
81.3854 198.0
81.4522 219.0
81.5191 208.0
81.5859 194.0
81.6528 178.0
81.7196 181.0
81.7864 219.0
81.8533 208.0
81.9201 226.0
81.987 193.0
82.0538 223.0
82.1207 184.0
82.1875 216.0
82.2544 185.0
82.3212 236.0
82.3881 228.0
82.4549 236.0
82.5217 220.0
82.5886 221.0
82.6554 193.0
82.7223 198.0
82.7891 216.0
82.856 205.0
82.9228 201.0
82.9897 215.0
83.0565 179.0
83.1233 191.0
83.1902 189.0
83.257 212.0
83.3239 206.0
83.3907 211.0
83.4576 199.0
83.5244 193.0
83.5913 209.0
83.6581 185.0
83.725 215.0
83.7918 197.0
83.8586 175.0
83.9255 198.0
83.9923 173.0
84.0592 192.0
84.126 164.0
84.1929 181.0
84.2597 195.0
84.3266 188.0
84.3934 182.0
84.4603 188.0
84.5271 207.0
84.5939 186.0
84.6608 173.0
84.7276 178.0
84.7945 190.0
84.8613 178.0
84.9282 170.0
84.995 193.0
85.0619 167.0
85.1287 195.0
85.1955 172.0
85.2624 195.0
85.3292 172.0
85.3961 193.0
85.4629 193.0
85.5298 165.0
85.5966 185.0
85.6635 196.0
85.7303 155.0
85.7972 180.0
85.864 184.0
85.9308 174.0
85.9977 175.0
86.0645 169.0
86.1314 167.0
86.1982 175.0
86.2651 166.0
86.3319 172.0
86.3988 173.0
86.4656 183.0
86.5324 172.0
86.5993 169.0
86.6661 165.0
86.733 183.0
86.7998 186.0
86.8667 177.0
86.9335 162.0
87.0004 204.0
87.0672 145.0
87.1341 181.0
87.2009 180.0
87.2677 167.0
87.3346 151.0
87.4014 181.0
87.4683 174.0
87.5351 185.0
87.602 147.0
87.6688 180.0
87.7357 184.0
87.8025 153.0
87.8693 178.0
87.9362 160.0
88.003 153.0
88.0699 179.0
88.1367 144.0
88.2036 169.0
88.2704 166.0
88.3373 137.0
88.4041 172.0
88.471 176.0
88.5378 172.0
88.6046 161.0
88.6715 170.0
88.7383 163.0
88.8052 153.0
88.872 152.0
88.9389 176.0
89.0057 161.0
89.0726 179.0
89.1394 145.0
89.2063 170.0
89.2731 174.0
89.3399 146.0
89.4068 134.0
89.4736 155.0
89.5405 151.0
89.6073 148.0
89.6742 145.0
89.741 164.0
89.8079 125.0
89.8747 160.0
89.9415 148.0