File: code/XRD_Analysis/Zeolites/data_files/SAPO-14_SAPO-34_comp/calcined/20241019_SAPO-14_SAPO-34_composite_Probe-1_calc.xy
4.98146 963.0
5.0483 995.0
5.11515 949.0
5.18199 872.0
5.24884 888.0
5.31568 848.0
5.38253 865.0
5.44937 866.0
5.51622 893.0
5.58306 828.0
5.64991 801.0
5.71675 793.0
5.7836 808.0
5.85044 801.0
5.91729 776.0
5.98413 753.0
6.05098 758.0
6.11782 744.0
6.18467 851.0
6.25151 754.0
6.31836 760.0
6.3852 762.0
6.45205 771.0
6.51889 740.0
6.58574 762.0
6.65258 713.0
6.71943 661.0
6.78627 680.0
6.85312 704.0
6.91996 678.0
6.98681 662.0
7.05365 695.0
7.1205 634.0
7.18734 649.0
7.25419 662.0
7.32103 654.0
7.38788 673.0
7.45472 644.0
7.52157 641.0
7.58841 653.0
7.65526 648.0
7.7221 599.0
7.78895 598.0
7.85579 654.0
7.92264 576.0
7.98948 602.0
8.05633 611.0
8.12317 660.0
8.19002 631.0
8.25686 534.0
8.32371 574.0
8.39055 555.0
8.4574 581.0
8.52424 629.0
8.59109 629.0
8.65793 649.0
8.72478 686.0
8.79162 806.0
8.85847 1049.0
8.92532 2112.0
8.99216 5411.0
9.05901 4799.0
9.12585 2381.0
9.1927 1050.0
9.25954 738.0
9.32639 736.0
9.39323 931.0
9.46008 1492.0
9.52692 3489.0
9.59377 6530.0
9.66061 2434.0
9.72746 859.0
9.7943 679.0
9.86115 599.0
9.92799 525.0
9.99484 508.0
10.0617 488.0
10.1285 553.0
10.1954 539.0
10.2622 496.0
10.3291 483.0
10.3959 505.0
10.4628 500.0
10.5296 519.0
10.5964 522.0
10.6633 504.0
10.7301 541.0
10.797 534.0
10.8638 559.0
10.9307 563.0
10.9975 650.0
11.0644 636.0
11.1312 617.0
11.198 885.0
11.2649 1447.0
11.3317 1023.0
11.3986 574.0
11.4654 538.0
11.5323 505.0
11.5991 514.0
11.666 549.0
11.7328 559.0
11.7997 616.0
11.8665 760.0
11.9333 1041.0
12.0002 1553.0
12.067 1787.0
12.1339 793.0
12.2007 545.0
12.2676 466.0
12.3344 493.0
12.4013 497.0
12.4681 495.0
12.5349 512.0
12.6018 516.0
12.6686 492.0
12.7355 471.0
12.8023 523.0
12.8692 722.0
12.936 1268.0
13.0029 2460.0
13.0697 1779.0
13.1366 1476.0
13.2034 3380.0
13.2702 4033.0
13.3371 1168.0
13.4039 674.0
13.4708 592.0
13.5376 672.0
13.6045 934.0
13.6713 1450.0
13.7382 2921.0
13.805 3339.0
13.8719 1221.0
13.9387 632.0
14.0055 666.0
14.0724 981.0
14.1392 840.0
14.2061 859.0
14.2729 882.0
14.3398 683.0
14.4066 570.0
14.4735 551.0
14.5403 502.0
14.6071 497.0
14.674 384.0
14.7408 467.0
14.8077 397.0
14.8745 440.0
14.9414 416.0
15.0082 425.0
15.0751 429.0
15.1419 450.0
15.2088 423.0
15.2756 467.0
15.3424 414.0
15.4093 445.0
15.4761 441.0
15.543 575.0
15.6098 929.0
15.6767 1375.0
15.7435 944.0
15.8104 695.0
15.8772 614.0
15.944 584.0
16.0109 652.0
16.0777 838.0
16.1446 1341.0
16.2114 1562.0
16.2783 914.0
16.3451 841.0
16.412 771.0
16.4788 558.0
16.5457 508.0
16.6125 522.0
16.6793 551.0
16.7462 603.0
16.813 575.0
16.8799 458.0
16.9467 413.0
17.0136 438.0
17.0804 467.0
17.1473 448.0
17.2141 470.0
17.2809 500.0
17.3478 512.0
17.4146 513.0
17.4815 555.0
17.5483 533.0
17.6152 609.0
17.682 595.0
17.7489 634.0
17.8157 891.0
17.8826 1490.0
17.9494 1937.0
18.0162 2829.0
18.0831 3695.0
18.1499 2298.0
18.2168 1703.0
18.2836 1580.0
18.3505 1129.0
18.4173 1119.0
18.4842 1439.0
18.551 925.0
18.6179 600.0
18.6847 532.0
18.7515 501.0
18.8184 535.0
18.8852 538.0
18.9521 699.0
19.0189 986.0
19.0858 1213.0
19.1526 954.0
19.2195 953.0
19.2863 800.0
19.3531 611.0
19.42 650.0
19.4868 594.0
19.5537 728.0
19.6205 998.0
19.6874 1071.0
19.7542 1225.0
19.8211 1359.0
19.8879 907.0
19.9548 647.0
20.0216 620.0
20.0884 573.0
20.1553 557.0
20.2221 611.0
20.289 611.0
20.3558 684.0
20.4227 705.0
20.4895 871.0
20.5564 1396.0
20.6232 2124.0
20.69 2190.0
20.7569 2964.0
20.8237 3900.0
20.8906 2579.0
20.9574 1273.0
21.0243 1084.0
21.0911 1511.0
21.158 1455.0
21.2248 1178.0
21.2917 1170.0
21.3585 1129.0
21.4253 1135.0
21.4922 1396.0
21.559 1297.0
21.6259 1118.0
21.6927 1263.0
21.7596 1282.0
21.8264 1149.0
21.8933 1546.0
21.9601 1743.0
22.0269 1667.0
22.0938 1983.0
22.1606 1689.0
22.2275 1470.0
22.2943 1159.0
22.3612 1087.0
22.428 1013.0
22.4949 1016.0
22.5617 1118.0
22.6286 1296.0
22.6954 1688.0
22.7622 2077.0
22.8291 1588.0
22.8959 961.0
22.9628 850.0
23.0296 786.0
23.0965 745.0
23.1633 917.0
23.2302 1207.0
23.297 1553.0
23.3639 1410.0
23.4307 1513.0
23.4975 1109.0
23.5644 841.0
23.6312 850.0
23.6981 834.0
23.7649 768.0
23.8318 703.0
23.8986 701.0
23.9655 808.0
24.0323 778.0
24.0991 831.0
24.166 911.0
24.2328 982.0
24.2997 900.0
24.3665 727.0
24.4334 658.0
24.5002 645.0
24.5671 652.0
24.6339 672.0
24.7008 695.0
24.7676 744.0
24.8344 992.0
24.9013 1293.0
24.9681 1449.0
25.035 1305.0
25.1018 1710.0
25.1687 1729.0
25.2355 1495.0
25.3024 1136.0
25.3692 957.0
25.436 934.0
25.5029 992.0
25.5697 875.0
25.6366 831.0
25.7034 790.0
25.7703 861.0
25.8371 926.0
25.904 948.0
25.9708 1017.0
26.0377 1051.0
26.1045 1271.0
26.1713 1611.0
26.2382 1593.0
26.305 1141.0
26.3719 1130.0
26.4387 1640.0
26.5056 1899.0
26.5724 1763.0
26.6393 2059.0
26.7061 1895.0
26.773 1384.0
26.8398 1209.0
26.9066 1169.0
26.9735 1132.0
27.0403 1176.0
27.1072 1035.0
27.174 1451.0
27.2409 2181.0
27.3077 2448.0
27.3746 2903.0
27.4414 3819.0
27.5082 2945.0
27.5751 1898.0
27.6419 1667.0
27.7088 1559.0
27.7756 1345.0
27.8425 1136.0
27.9093 1034.0
27.9762 965.0
28.043 920.0
28.1099 1031.0
28.1767 1071.0
28.2435 934.0
28.3104 851.0
28.3772 955.0
28.4441 1035.0
28.5109 947.0
28.5778 895.0
28.6446 919.0
28.7115 989.0
28.7783 1052.0
28.8451 1013.0
28.912 922.0
28.9788 834.0
29.0457 882.0
29.1125 1243.0
29.1794 2546.0
29.2462 3752.0
29.3131 2906.0
29.3799 1741.0
29.4468 1214.0
29.5136 1138.0
29.5804 1053.0
29.6473 1119.0
29.7141 1482.0
29.781 2050.0
29.8478 1981.0
29.9147 1794.0
29.9815 1590.0
30.0484 1746.0
30.1152 1597.0
30.182 1709.0
30.2489 1620.0
30.3157 1501.0
30.3826 1332.0
30.4494 1132.0
30.5163 1047.0
30.5831 1035.0
30.65 1106.0
30.7168 1257.0
30.7837 1631.0
30.8505 2271.0
30.9173 3503.0
30.9842 3944.0
31.051 2972.0
31.1179 1905.0
31.1847 1353.0
31.2516 1282.0
31.3184 1484.0
31.3853 1604.0
31.4521 1210.0
31.519 1038.0
31.5858 960.0
31.6526 901.0
31.7195 808.0
31.7863 821.0
31.8532 729.0
31.92 806.0
31.9869 840.0
32.0537 940.0
32.1206 1312.0
32.1874 1209.0
32.2542 1039.0
32.3211 971.0
32.3879 854.0
32.4548 806.0
32.5216 787.0
32.5885 797.0
32.6553 754.0
32.7222 737.0
32.789 724.0
32.8559 724.0
32.9227 877.0
32.9895 990.0
33.0564 1114.0
33.1232 888.0
33.1901 784.0
33.2569 649.0
33.3238 617.0
33.3906 656.0
33.4575 852.0
33.5243 870.0
33.5911 829.0
33.658 711.0
33.7248 759.0
33.7917 675.0
33.8585 633.0
33.9254 589.0
33.9922 644.0
34.0591 665.0
34.1259 705.0
34.1928 695.0
34.2596 684.0
34.3264 653.0
34.3933 592.0
34.4601 583.0
34.527 557.0
34.5938 508.0
34.6607 542.0
34.7275 588.0
34.7944 628.0
34.8612 670.0
34.928 635.0
34.9949 573.0
35.0617 501.0
35.1286 536.0
35.1954 574.0
35.2623 601.0
35.3291 670.0
35.396 680.0
35.4628 649.0
35.5297 560.0
35.5965 567.0
35.6633 620.0
35.7302 675.0
35.797 626.0
35.8639 594.0
35.9307 575.0
35.9976 662.0
36.0644 601.0
36.1313 683.0
36.1981 743.0
36.265 758.0
36.3318 712.0
36.3986 642.0
36.4655 619.0
36.5323 682.0
36.5992 707.0
36.666 694.0
36.7329 639.0
36.7997 758.0
36.8666 637.0
36.9334 685.0
37.0002 578.0
37.0671 581.0
37.1339 504.0
37.2008 525.0
37.2676 496.0
37.3345 445.0
37.4013 475.0
37.4682 461.0
37.535 474.0
37.6019 474.0
37.6687 432.0
37.7355 480.0
37.8024 470.0
37.8692 415.0
37.9361 410.0
38.0029 376.0
38.0698 389.0
38.1366 444.0
38.2035 419.0
38.2703 458.0
38.3371 538.0
38.404 488.0
38.4708 482.0
38.5377 451.0
38.6045 454.0
38.6714 426.0
38.7382 454.0
38.8051 436.0
38.8719 449.0
38.9388 460.0
39.0056 474.0
39.0724 409.0
39.1393 409.0
39.2061 449.0
39.273 436.0
39.3398 459.0
39.4067 463.0
39.4735 470.0
39.5404 429.0
39.6072 419.0
39.6741 470.0
39.7409 455.0
39.8077 483.0
39.8746 607.0
39.9414 544.0
40.0083 600.0
40.0751 586.0
40.142 626.0
40.2088 580.0
40.2757 528.0
40.3425 441.0
40.4093 454.0
40.4762 429.0
40.543 466.0
40.6099 430.0
40.6767 446.0
40.7436 417.0
40.8104 467.0
40.8773 407.0
40.9441 411.0
41.011 393.0
41.0778 408.0
41.1446 419.0
41.2115 420.0
41.2783 420.0
41.3452 356.0
41.412 349.0
41.4789 338.0
41.5457 361.0
41.6126 386.0
41.6794 422.0
41.7462 399.0
41.8131 478.0
41.8799 521.0
41.9468 491.0
42.0136 470.0
42.0805 474.0
42.1473 430.0
42.2142 475.0
42.281 443.0
42.3479 511.0
42.4147 583.0
42.4815 538.0
42.5484 539.0
42.6152 445.0
42.6821 422.0
42.7489 407.0
42.8158 371.0
42.8826 360.0
42.9495 321.0
43.0163 364.0
43.0831 413.0
43.15 422.0
43.2168 371.0
43.2837 387.0
43.3505 410.0
43.4174 426.0
43.4842 413.0
43.5511 417.0
43.6179 455.0
43.6848 430.0
43.7516 476.0
43.8184 482.0
43.8853 456.0
43.9521 482.0
44.019 397.0
44.0858 428.0
44.1527 439.0
44.2195 446.0
44.2864 429.0
44.3532 446.0
44.4201 436.0
44.4869 457.0
44.5537 413.0
44.6206 482.0
44.6874 451.0
44.7543 470.0
44.8211 461.0
44.888 379.0
44.9548 378.0
45.0217 372.0
45.0885 363.0
45.1553 386.0
45.2222 366.0
45.289 391.0
45.3559 410.0
45.4227 398.0
45.4896 393.0
45.5564 491.0
45.6233 506.0
45.6901 516.0
45.757 472.0
45.8238 433.0
45.8906 391.0
45.9575 392.0
46.0243 424.0
46.0912 409.0
46.158 461.0
46.2249 512.0
46.2917 526.0
46.3586 483.0
46.4254 511.0
46.4922 475.0
46.5591 434.0
46.6259 423.0
46.6928 395.0
46.7596 393.0
46.8265 414.0
46.8933 398.0
46.9602 367.0
47.027 354.0
47.0939 397.0
47.1607 391.0
47.2275 384.0
47.2944 364.0
47.3612 392.0
47.4281 403.0
47.4949 428.0
47.5618 443.0
47.6286 427.0
47.6955 420.0
47.7623 416.0
47.8291 440.0
47.896 463.0
47.9628 492.0
48.0297 450.0
48.0965 434.0
48.1634 454.0
48.2302 378.0
48.2971 434.0
48.3639 395.0
48.4308 382.0
48.4976 391.0
48.5644 391.0
48.6313 408.0
48.6981 377.0
48.765 454.0
48.8318 522.0
48.8987 539.0
48.9655 547.0
49.0324 525.0
49.0992 558.0
49.1661 479.0
49.2329 510.0
49.2997 485.0
49.3666 511.0
49.4334 490.0
49.5003 490.0
49.5671 498.0
49.634 513.0
49.7008 455.0
49.7677 441.0
49.8345 449.0
49.9013 434.0
49.9682 404.0
50.035 385.0
50.1019 379.0
50.1687 355.0
50.2356 367.0
50.3024 384.0
50.3693 373.0
50.4361 383.0
50.503 369.0
50.5698 356.0
50.6366 356.0
50.7035 386.0
50.7703 377.0
50.8372 401.0
50.904 416.0
50.9709 509.0
51.0377 532.0
51.1046 528.0
51.1714 502.0
51.2382 520.0
51.3051 490.0
51.3719 449.0
51.4388 436.0
51.5056 417.0
51.5725 424.0
51.6393 391.0
51.7062 423.0
51.773 415.0
51.8399 445.0
51.9067 456.0
51.9735 389.0
52.0404 412.0
52.1072 335.0
52.1741 382.0
52.2409 338.0
52.3078 393.0
52.3746 434.0
52.4415 439.0
52.5083 413.0
52.5751 371.0
52.642 350.0
52.7088 366.0
52.7757 385.0
52.8425 350.0
52.9094 388.0
52.9762 404.0
53.0431 411.0
53.1099 375.0
53.1768 378.0
53.2436 395.0
53.3104 347.0
53.3773 369.0
53.4441 382.0
53.511 432.0
53.5778 403.0
53.6447 411.0
53.7115 428.0
53.7784 466.0
53.8452 511.0
53.9121 510.0
53.9789 417.0
54.0457 426.0
54.1126 423.0
54.1794 377.0
54.2463 364.0
54.3131 362.0
54.38 370.0
54.4468 412.0
54.5137 368.0
54.5805 367.0
54.6473 400.0
54.7142 461.0
54.781 449.0
54.8479 453.0
54.9147 493.0
54.9816 455.0
55.0484 478.0
55.1153 472.0
55.1821 477.0
55.249 472.0
55.3158 470.0
55.3826 429.0
55.4495 443.0
55.5163 419.0
55.5832 454.0
55.65 500.0
55.7169 455.0
55.7837 490.0
55.8506 485.0
55.9174 398.0
55.9842 443.0
56.0511 455.0
56.1179 494.0
56.1848 505.0
56.2516 446.0
56.3185 450.0
56.3853 404.0
56.4522 382.0
56.519 416.0
56.5859 358.0
56.6527 398.0
56.7195 400.0
56.7864 414.0
56.8532 459.0
56.9201 403.0
56.9869 394.0
57.0538 379.0
57.1206 372.0
57.1875 367.0
57.2543 393.0
57.3212 352.0
57.388 387.0
57.4548 384.0
57.5217 402.0
57.5885 382.0
57.6554 399.0
57.7222 430.0
57.7891 459.0
57.8559 376.0
57.9228 379.0
57.9896 383.0
58.0564 382.0
58.1233 397.0
58.1901 356.0
58.257 335.0
58.3238 339.0
58.3907 328.0
58.4575 362.0
58.5244 360.0
58.5912 333.0
58.6581 382.0
58.7249 392.0
58.7917 353.0
58.8586 345.0
58.9254 297.0
58.9923 357.0
59.0591 341.0
59.126 337.0
59.1928 328.0
59.2597 347.0
59.3265 403.0
59.3933 371.0
59.4602 378.0
59.527 388.0
59.5939 391.0
59.6607 376.0
59.7276 341.0
59.7944 373.0
59.8613 320.0
59.9281 363.0
59.995 344.0
60.0618 377.0
60.1286 393.0
60.1955 413.0
60.2623 396.0
60.3292 375.0
60.396 392.0
60.4629 362.0
60.5297 385.0
60.5966 420.0
60.6634 451.0
60.7302 410.0
60.7971 394.0
60.8639 373.0
60.9308 392.0
60.9976 348.0
61.0645 334.0
61.1313 348.0
61.1982 330.0
61.265 338.0
61.3319 321.0
61.3987 303.0
61.4655 306.0
61.5324 309.0
61.5992 314.0
61.6661 318.0
61.7329 325.0
61.7998 333.0
61.8666 326.0
61.9335 332.0
62.0003 338.0
62.0672 334.0
62.134 378.0
62.2008 323.0
62.2677 362.0
62.3345 346.0
62.4014 350.0
62.4682 294.0
62.5351 299.0
62.6019 365.0
62.6688 335.0
62.7356 371.0
62.8024 317.0
62.8693 313.0
62.9361 322.0
63.003 313.0
63.0698 334.0
63.1367 290.0
63.2035 325.0
63.2704 263.0
63.3372 294.0
63.4041 334.0
63.4709 313.0
63.5377 319.0
63.6046 322.0
63.6714 337.0
63.7383 337.0
63.8051 348.0
63.872 358.0
63.9388 373.0
64.0057 351.0
64.0725 304.0
64.1393 323.0
64.2062 307.0
64.273 298.0
64.3399 334.0
64.4067 321.0
64.4736 308.0
64.5404 331.0
64.6073 322.0
64.6741 293.0
64.741 302.0
64.8078 321.0
64.8746 346.0
64.9415 301.0
65.0083 322.0
65.0752 338.0
65.142 336.0
65.2089 365.0
65.2757 332.0
65.3426 308.0
65.4094 331.0
65.4762 332.0
65.5431 324.0
65.6099 349.0
65.6768 379.0
65.7436 380.0
65.8105 376.0
65.8773 364.0
65.9442 354.0
66.011 360.0
66.0779 357.0
66.1447 361.0
66.2115 360.0
66.2784 351.0
66.3452 345.0
66.4121 346.0
66.4789 366.0
66.5458 349.0
66.6126 340.0
66.6795 355.0
66.7463 330.0
66.8132 380.0
66.88 352.0
66.9468 328.0
67.0137 366.0
67.0805 401.0
67.1474 414.0
67.2142 365.0
67.2811 435.0
67.3479 448.0
67.4148 399.0
67.4816 430.0
67.5484 410.0
67.6153 391.0
67.6821 373.0
67.749 338.0
67.8158 313.0
67.8827 329.0
67.9495 282.0
68.0164 287.0
68.0832 302.0
68.1501 297.0
68.2169 326.0
68.2837 326.0
68.3506 316.0
68.4174 304.0
68.4843 305.0
68.5511 344.0
68.618 316.0
68.6848 353.0
68.7517 344.0
68.8185 331.0
68.8853 331.0
68.9522 339.0
69.019 303.0
69.0859 322.0
69.1527 339.0
69.2196 311.0
69.2864 285.0
69.3533 267.0
69.4201 294.0
69.487 293.0
69.5538 306.0
69.6206 282.0
69.6875 308.0
69.7543 283.0
69.8212 307.0
69.888 316.0
69.9549 324.0
70.0217 318.0
70.0886 323.0
70.1554 323.0
70.2222 334.0
70.2891 344.0
70.3559 353.0
70.4228 346.0
70.4896 387.0
70.5565 378.0
70.6233 378.0
70.6902 334.0
70.757 316.0
70.8239 299.0
70.8907 318.0
70.9575 349.0
71.0244 322.0
71.0912 330.0
71.1581 285.0
71.2249 328.0
71.2918 306.0
71.3586 292.0
71.4255 287.0
71.4923 306.0
71.5592 304.0
71.626 315.0
71.6928 305.0
71.7597 335.0
71.8265 288.0
71.8934 307.0
71.9602 299.0
72.0271 325.0
72.0939 267.0
72.1608 304.0
72.2276 274.0
72.2944 303.0
72.3613 329.0
72.4281 262.0
72.495 304.0
72.5618 300.0
72.6287 274.0
72.6955 261.0
72.7624 264.0
72.8292 272.0
72.8961 277.0
72.9629 287.0
73.0297 266.0
73.0966 243.0
73.1634 279.0
73.2303 275.0
73.2971 277.0
73.364 272.0
73.4308 318.0
73.4977 268.0
73.5645 291.0
73.6313 289.0
73.6982 290.0
73.765 270.0
73.8319 263.0
73.8987 269.0
73.9656 248.0
74.0324 255.0
74.0993 260.0
74.1661 300.0
74.233 274.0
74.2998 268.0
74.3666 278.0
74.4335 242.0
74.5003 304.0
74.5672 286.0
74.634 301.0
74.7009 288.0
74.7677 294.0
74.8346 280.0
74.9014 261.0
74.9683 291.0
75.0351 308.0
75.1019 304.0
75.1688 303.0
75.2356 274.0
75.3025 266.0
75.3693 321.0
75.4362 284.0
75.503 258.0
75.5699 259.0
75.6367 307.0
75.7035 286.0
75.7704 292.0
75.8372 264.0
75.9041 302.0
75.9709 314.0
76.0378 274.0
76.1046 302.0
76.1715 288.0
76.2383 268.0
76.3052 286.0
76.372 258.0
76.4388 229.0
76.5057 230.0
76.5725 257.0
76.6394 241.0
76.7062 258.0
76.7731 282.0
76.8399 222.0
76.9068 267.0
76.9736 277.0
77.0404 280.0
77.1073 228.0
77.1741 247.0
77.241 237.0
77.3078 230.0
77.3747 272.0
77.4415 277.0
77.5084 266.0
77.5752 245.0
77.6421 284.0
77.7089 247.0
77.7757 288.0
77.8426 262.0
77.9094 274.0
77.9763 263.0
78.0431 236.0
78.11 257.0
78.1768 243.0
78.2437 297.0
78.3105 277.0
78.3773 245.0
78.4442 255.0
78.511 242.0
78.5779 241.0
78.6447 257.0
78.7116 230.0
78.7784 268.0
78.8453 238.0
78.9121 251.0
78.979 216.0
79.0458 253.0
79.1126 228.0
79.1795 278.0
79.2463 240.0
79.3132 247.0
79.38 239.0
79.4469 226.0
79.5137 201.0
79.5806 205.0
79.6474 210.0
79.7143 197.0
79.7811 231.0
79.8479 246.0
79.9148 260.0
79.9816 235.0
80.0485 231.0
80.1153 207.0
80.1822 236.0
80.249 226.0
80.3159 213.0
80.3827 217.0
80.4495 215.0
80.5164 237.0
80.5832 213.0
80.6501 225.0
80.7169 248.0
80.7838 233.0
80.8506 248.0
80.9175 216.0
80.9843 246.0
81.0512 235.0
81.118 216.0
81.1848 199.0
81.2517 178.0
81.3185 228.0
81.3854 240.0
81.4522 200.0
81.5191 205.0
81.5859 199.0
81.6528 237.0
81.7196 223.0
81.7864 226.0
81.8533 223.0
81.9201 201.0
81.987 193.0
82.0538 183.0
82.1207 212.0
82.1875 191.0
82.2544 217.0
82.3212 193.0
82.3881 230.0
82.4549 213.0
82.5217 199.0
82.5886 216.0
82.6554 239.0
82.7223 215.0
82.7891 195.0
82.856 184.0
82.9228 183.0
82.9897 197.0
83.0565 189.0
83.1233 205.0
83.1902 210.0
83.257 203.0
83.3239 179.0
83.3907 180.0
83.4576 209.0
83.5244 175.0
83.5913 181.0
83.6581 200.0
83.725 219.0
83.7918 193.0
83.8586 199.0
83.9255 194.0
83.9923 195.0
84.0592 189.0
84.126 201.0
84.1929 208.0
84.2597 193.0
84.3266 206.0
84.3934 183.0
84.4603 200.0
84.5271 190.0
84.5939 185.0
84.6608 190.0
84.7276 195.0
84.7945 192.0
84.8613 188.0
84.9282 192.0
84.995 210.0
85.0619 192.0
85.1287 199.0
85.1955 193.0
85.2624 194.0
85.3292 175.0
85.3961 192.0
85.4629 188.0
85.5298 197.0
85.5966 193.0
85.6635 196.0
85.7303 209.0
85.7972 203.0
85.864 190.0
85.9308 188.0
85.9977 168.0
86.0645 214.0
86.1314 184.0
86.1982 196.0
86.2651 162.0
86.3319 191.0
86.3988 173.0
86.4656 214.0
86.5324 200.0
86.5993 183.0
86.6661 192.0
86.733 169.0
86.7998 194.0
86.8667 194.0
86.9335 185.0
87.0004 160.0
87.0672 184.0
87.1341 173.0
87.2009 179.0
87.2677 170.0
87.3346 172.0
87.4014 205.0
87.4683 167.0
87.5351 159.0
87.602 149.0
87.6688 155.0
87.7357 149.0
87.8025 178.0
87.8693 155.0
87.9362 151.0
88.003 190.0
88.0699 180.0
88.1367 180.0
88.2036 174.0
88.2704 166.0
88.3373 170.0
88.4041 182.0
88.471 162.0
88.5378 154.0
88.6046 178.0
88.6715 152.0
88.7383 165.0
88.8052 158.0
88.872 160.0
88.9389 134.0
89.0057 165.0
89.0726 150.0
89.1394 135.0
89.2063 164.0
89.2731 167.0
89.3399 129.0
89.4068 150.0
89.4736 147.0
89.5405 162.0
89.6073 135.0
89.6742 148.0
89.741 166.0
89.8079 158.0
89.8747 154.0
89.9415 147.0