File: code/XRD_Analysis/External Sources/Alex_SAPO/20220430_SAPO-34_220427_calc650C.xy
4.98146 957.0
5.0483 911.0
5.11515 888.0
5.18199 888.0
5.24884 842.0
5.31568 812.0
5.38253 882.0
5.44937 866.0
5.51622 818.0
5.58306 801.0
5.64991 840.0
5.71675 825.0
5.7836 768.0
5.85044 779.0
5.91729 754.0
5.98413 792.0
6.05098 736.0
6.11782 721.0
6.18467 781.0
6.25151 723.0
6.31836 736.0
6.3852 704.0
6.45205 706.0
6.51889 698.0
6.58574 694.0
6.65258 707.0
6.71943 750.0
6.78627 647.0
6.85312 669.0
6.91996 658.0
6.98681 606.0
7.05365 626.0
7.1205 660.0
7.18734 668.0
7.25419 598.0
7.32103 613.0
7.38788 643.0
7.45472 625.0
7.52157 619.0
7.58841 646.0
7.65526 599.0
7.7221 621.0
7.78895 589.0
7.85579 587.0
7.92264 531.0
7.98948 630.0
8.05633 572.0
8.12317 552.0
8.19002 560.0
8.25686 576.0
8.32371 563.0
8.39055 560.0
8.4574 572.0
8.52424 569.0
8.59109 539.0
8.65793 534.0
8.72478 519.0
8.79162 570.0
8.85847 516.0
8.92532 567.0
8.99216 512.0
9.05901 566.0
9.12585 637.0
9.1927 669.0
9.25954 760.0
9.32639 981.0
9.39323 1638.0
9.46008 3120.0
9.52692 7398.0
9.59377 13650.0
9.66061 10815.0
9.72746 4405.0
9.7943 1876.0
9.86115 1294.0
9.92799 1137.0
9.99484 1083.0
10.0617 975.0
10.1285 910.0
10.1954 779.0
10.2622 751.0
10.3291 701.0
10.3959 735.0
10.4628 730.0
10.5296 814.0
10.5964 979.0
10.6633 1102.0
10.7301 1219.0
10.797 1022.0
10.8638 801.0
10.9307 703.0
10.9975 644.0
11.0644 630.0
11.1312 566.0
11.198 563.0
11.2649 560.0
11.3317 563.0
11.3986 543.0
11.4654 483.0
11.5323 537.0
11.5991 509.0
11.666 565.0
11.7328 493.0
11.7997 512.0
11.8665 490.0
11.9333 504.0
12.0002 487.0
12.067 476.0
12.1339 514.0
12.2007 518.0
12.2676 486.0
12.3344 533.0
12.4013 508.0
12.4681 536.0
12.5349 512.0
12.6018 560.0
12.6686 560.0
12.7355 632.0
12.8023 799.0
12.8692 1035.0
12.936 1702.0
13.0029 2717.0
13.0697 2626.0
13.1366 1596.0
13.2034 1054.0
13.2702 845.0
13.3371 657.0
13.4039 668.0
13.4708 696.0
13.5376 800.0
13.6045 766.0
13.6713 669.0
13.7382 571.0
13.805 527.0
13.8719 541.0
13.9387 552.0
14.0055 555.0
14.0724 597.0
14.1392 649.0
14.2061 508.0
14.2729 469.0
14.3398 493.0
14.4066 488.0
14.4735 501.0
14.5403 435.0
14.6071 465.0
14.674 541.0
14.7408 466.0
14.8077 486.0
14.8745 481.0
14.9414 486.0
15.0082 518.0
15.0751 475.0
15.1419 481.0
15.2088 463.0
15.2756 469.0
15.3424 492.0
15.4093 571.0
15.4761 580.0
15.543 561.0
15.6098 615.0
15.6767 601.0
15.7435 639.0
15.8104 551.0
15.8772 622.0
15.944 625.0
16.0109 772.0
16.0777 989.0
16.1446 1513.0
16.2114 1840.0
16.2783 1443.0
16.3451 920.0
16.412 731.0
16.4788 728.0
16.5457 677.0
16.6125 635.0
16.6793 721.0
16.7462 784.0
16.813 916.0
16.8799 1009.0
16.9467 1262.0
17.0136 1409.0
17.0804 1446.0
17.1473 1190.0
17.2141 1130.0
17.2809 1094.0
17.3478 1140.0
17.4146 1020.0
17.4815 942.0
17.5483 869.0
17.6152 792.0
17.682 736.0
17.7489 770.0
17.8157 869.0
17.8826 948.0
17.9494 918.0
18.0162 791.0
18.0831 703.0
18.1499 668.0
18.2168 602.0
18.2836 611.0
18.3505 632.0
18.4173 632.0
18.4842 594.0
18.551 579.0
18.6179 638.0
18.6847 617.0
18.7515 622.0
18.8184 677.0
18.8852 683.0
18.9521 661.0
19.0189 704.0
19.0858 755.0
19.1526 928.0
19.2195 1045.0
19.2863 985.0
19.3531 933.0
19.42 837.0
19.4868 815.0
19.5537 747.0
19.6205 763.0
19.6874 810.0
19.7542 820.0
19.8211 844.0
19.8879 809.0
19.9548 807.0
20.0216 854.0
20.0884 927.0
20.1553 998.0
20.2221 1028.0
20.289 965.0
20.3558 951.0
20.4227 1019.0
20.4895 940.0
20.5564 1029.0
20.6232 1177.0
20.69 1617.0
20.7569 2422.0
20.8237 2908.0
20.8906 2495.0
20.9574 1688.0
21.0243 1362.0
21.0911 1235.0
21.158 1221.0
21.2248 1175.0
21.2917 1273.0
21.3585 1402.0
21.4253 1497.0
21.4922 1507.0
21.559 1458.0
21.6259 1157.0
21.6927 974.0
21.7596 860.0
21.8264 807.0
21.8933 748.0
21.9601 779.0
22.0269 754.0
22.0938 797.0
22.1606 762.0
22.2275 761.0
22.2943 783.0
22.3612 799.0
22.428 789.0
22.4949 794.0
22.5617 841.0
22.6286 881.0
22.6954 924.0
22.7622 869.0
22.8291 798.0
22.8959 804.0
22.9628 856.0
23.0296 797.0
23.0965 856.0
23.1633 956.0
23.2302 1063.0
23.297 1150.0
23.3639 1048.0
23.4307 896.0
23.4975 865.0
23.5644 825.0
23.6312 908.0
23.6981 985.0
23.7649 940.0
23.8318 980.0
23.8986 1130.0
23.9655 1260.0
24.0323 1344.0
24.0991 1440.0
24.166 1364.0
24.2328 1304.0
24.2997 1090.0
24.3665 1073.0
24.4334 958.0
24.5002 957.0
24.5671 972.0
24.6339 901.0
24.7008 856.0
24.7676 899.0
24.8344 862.0
24.9013 899.0
24.9681 971.0
25.035 1091.0
25.1018 1070.0
25.1687 1099.0
25.2355 1043.0
25.3024 1027.0
25.3692 951.0
25.436 937.0
25.5029 906.0
25.5697 884.0
25.6366 883.0
25.7034 913.0
25.7703 931.0
25.8371 934.0
25.904 977.0
25.9708 1103.0
26.0377 1196.0
26.1045 1427.0
26.1713 1575.0
26.2382 1487.0
26.305 1324.0
26.3719 1207.0
26.4387 1225.0
26.5056 1168.0
26.5724 1160.0
26.6393 1097.0
26.7061 996.0
26.773 933.0
26.8398 951.0
26.9066 855.0
26.9735 840.0
27.0403 861.0
27.1072 793.0
27.174 753.0
27.2409 871.0
27.3077 770.0
27.3746 819.0
27.4414 792.0
27.5082 741.0
27.5751 797.0
27.6419 808.0
27.7088 862.0
27.7756 912.0
27.8425 980.0
27.9093 1004.0
27.9762 1085.0
28.043 1029.0
28.1099 1039.0
28.1767 993.0
28.2435 1034.0
28.3104 943.0
28.3772 900.0
28.4441 907.0
28.5109 889.0
28.5778 838.0
28.6446 786.0
28.7115 737.0
28.7783 791.0
28.8451 774.0
28.912 828.0
28.9788 783.0
29.0457 792.0
29.1125 812.0
29.1794 835.0
29.2462 837.0
29.3131 878.0
29.3799 803.0
29.4468 784.0
29.5136 842.0
29.5804 814.0
29.6473 888.0
29.7141 813.0
29.781 879.0
29.8478 877.0
29.9147 901.0
29.9815 898.0
30.0484 864.0
30.1152 997.0
30.182 1044.0
30.2489 1032.0
30.3157 1027.0
30.3826 1008.0
30.4494 1097.0
30.5163 1078.0
30.5831 1100.0
30.65 1130.0
30.7168 1291.0
30.7837 1348.0
30.8505 1506.0
30.9173 1687.0
30.9842 1731.0
31.051 1614.0
31.1179 1656.0
31.1847 1757.0
31.2516 1844.0
31.3184 1809.0
31.3853 1802.0
31.4521 1538.0
31.519 1234.0
31.5858 1086.0
31.6526 1057.0
31.7195 984.0
31.7863 1065.0
31.8532 993.0
31.92 1005.0
31.9869 920.0
32.0537 933.0
32.1206 863.0
32.1874 869.0
32.2542 910.0
32.3211 960.0
32.3879 962.0
32.4548 930.0
32.5216 841.0
32.5885 928.0
32.6553 835.0
32.7222 840.0
32.789 866.0
32.8559 837.0
32.9227 825.0
32.9895 783.0
33.0564 809.0
33.1232 734.0
33.1901 728.0
33.2569 730.0
33.3238 663.0
33.3906 664.0
33.4575 607.0
33.5243 553.0
33.5911 604.0
33.658 602.0
33.7248 590.0
33.7917 572.0
33.8585 565.0
33.9254 573.0
33.9922 627.0
34.0591 525.0
34.1259 591.0
34.1928 572.0
34.2596 532.0
34.3264 576.0
34.3933 508.0
34.4601 513.0
34.527 521.0
34.5938 521.0
34.6607 569.0
34.7275 518.0
34.7944 541.0
34.8612 620.0
34.928 565.0
34.9949 576.0
35.0617 522.0
35.1286 552.0
35.1954 493.0
35.2623 532.0
35.3291 507.0
35.396 511.0
35.4628 503.0
35.5297 482.0
35.5965 509.0
35.6633 478.0
35.7302 491.0
35.797 428.0
35.8639 493.0
35.9307 431.0
35.9976 482.0
36.0644 473.0
36.1313 492.0
36.1981 464.0
36.265 433.0
36.3318 492.0
36.3986 473.0
36.4655 486.0
36.5323 454.0
36.5992 429.0
36.666 451.0
36.7329 426.0
36.7997 461.0
36.8666 433.0
36.9334 420.0
37.0002 435.0
37.0671 419.0
37.1339 369.0
37.2008 358.0
37.2676 400.0
37.3345 382.0
37.4013 341.0
37.4682 398.0
37.535 354.0
37.6019 389.0
37.6687 365.0
37.7355 350.0
37.8024 385.0
37.8692 396.0
37.9361 367.0
38.0029 377.0
38.0698 386.0
38.1366 331.0
38.2035 394.0
38.2703 393.0
38.3371 375.0
38.404 340.0
38.4708 397.0
38.5377 364.0
38.6045 323.0
38.6714 368.0
38.7382 358.0
38.8051 345.0
38.8719 402.0
38.9388 378.0
39.0056 368.0
39.0724 370.0
39.1393 360.0
39.2061 381.0
39.273 361.0
39.3398 381.0
39.4067 385.0
39.4735 383.0
39.5404 363.0
39.6072 416.0
39.6741 377.0
39.7409 371.0
39.8077 377.0
39.8746 403.0
39.9414 398.0
40.0083 389.0
40.0751 389.0
40.142 378.0
40.2088 403.0
40.2757 364.0
40.3425 354.0
40.4093 368.0
40.4762 364.0
40.543 365.0
40.6099 356.0
40.6767 391.0
40.7436 373.0
40.8104 382.0
40.8773 426.0
40.9441 339.0
41.011 366.0
41.0778 366.0
41.1446 368.0
41.2115 380.0
41.2783 344.0
41.3452 376.0
41.412 341.0
41.4789 373.0
41.5457 373.0
41.6126 375.0
41.6794 389.0
41.7462 353.0
41.8131 386.0
41.8799 340.0
41.9468 365.0
42.0136 388.0
42.0805 386.0
42.1473 381.0
42.2142 364.0
42.281 364.0
42.3479 350.0
42.4147 381.0
42.4815 357.0
42.5484 322.0
42.6152 350.0
42.6821 351.0
42.7489 347.0
42.8158 353.0
42.8826 363.0
42.9495 350.0
43.0163 384.0
43.0831 381.0
43.15 356.0
43.2168 367.0
43.2837 363.0
43.3505 394.0
43.4174 392.0
43.4842 375.0
43.5511 413.0
43.6179 387.0
43.6848 388.0
43.7516 386.0
43.8184 393.0
43.8853 400.0
43.9521 363.0
44.019 342.0
44.0858 364.0
44.1527 347.0
44.2195 336.0
44.2864 354.0
44.3532 348.0
44.4201 352.0
44.4869 356.0
44.5537 357.0
44.6206 352.0
44.6874 342.0
44.7543 337.0
44.8211 323.0
44.888 352.0
44.9548 386.0
45.0217 353.0
45.0885 364.0
45.1553 337.0
45.2222 341.0
45.289 333.0
45.3559 301.0
45.4227 338.0
45.4896 340.0
45.5564 320.0
45.6233 339.0
45.6901 334.0
45.757 339.0
45.8238 336.0
45.8906 347.0
45.9575 313.0
46.0243 329.0
46.0912 315.0
46.158 322.0
46.2249 313.0
46.2917 320.0
46.3586 307.0
46.4254 301.0
46.4922 316.0
46.5591 348.0
46.6259 346.0
46.6928 342.0
46.7596 339.0
46.8265 360.0
46.8933 358.0
46.9602 314.0
47.027 334.0
47.0939 371.0
47.1607 324.0
47.2275 363.0
47.2944 344.0
47.3612 370.0
47.4281 339.0
47.4949 324.0
47.5618 336.0
47.6286 331.0
47.6955 334.0
47.7623 333.0
47.8291 335.0
47.896 332.0
47.9628 348.0
48.0297 319.0
48.0965 324.0
48.1634 301.0
48.2302 351.0
48.2971 368.0
48.3639 300.0
48.4308 307.0
48.4976 342.0
48.5644 357.0
48.6313 323.0
48.6981 317.0
48.765 347.0
48.8318 307.0
48.8987 361.0
48.9655 320.0
49.0324 338.0
49.0992 399.0
49.1661 414.0
49.2329 442.0
49.2997 424.0
49.3666 465.0
49.4334 465.0
49.5003 439.0
49.5671 424.0
49.634 392.0
49.7008 404.0
49.7677 417.0
49.8345 375.0
49.9013 363.0
49.9682 371.0
50.035 373.0
50.1019 392.0
50.1687 337.0
50.2356 344.0
50.3024 345.0
50.3693 409.0
50.4361 345.0
50.503 353.0
50.5698 344.0
50.6366 333.0
50.7035 365.0
50.7703 368.0
50.8372 323.0
50.904 377.0
50.9709 375.0
51.0377 419.0
51.1046 384.0
51.1714 391.0
51.2382 398.0
51.3051 378.0
51.3719 348.0
51.4388 391.0
51.5056 358.0
51.5725 372.0
51.6393 372.0
51.7062 313.0
51.773 335.0
51.8399 346.0
51.9067 333.0
51.9735 348.0
52.0404 334.0
52.1072 355.0
52.1741 341.0
52.2409 347.0
52.3078 332.0
52.3746 311.0
52.4415 333.0
52.5083 319.0
52.5751 371.0
52.642 379.0
52.7088 335.0
52.7757 313.0
52.8425 379.0
52.9094 345.0
52.9762 319.0
53.0431 305.0
53.1099 354.0
53.1768 353.0
53.2436 330.0
53.3104 331.0
53.3773 334.0
53.4441 341.0
53.511 324.0
53.5778 334.0
53.6447 316.0
53.7115 393.0
53.7784 366.0
53.8452 332.0
53.9121 347.0
53.9789 367.0
54.0457 326.0
54.1126 322.0
54.1794 323.0
54.2463 347.0
54.3131 301.0
54.38 339.0
54.4468 322.0
54.5137 298.0
54.5805 294.0
54.6473 319.0
54.7142 350.0
54.781 326.0
54.8479 364.0
54.9147 321.0
54.9816 314.0
55.0484 341.0
55.1153 354.0
55.1821 303.0
55.249 330.0
55.3158 306.0
55.3826 334.0
55.4495 335.0
55.5163 347.0
55.5832 336.0
55.65 324.0
55.7169 337.0
55.7837 352.0
55.8506 321.0
55.9174 340.0
55.9842 345.0
56.0511 354.0
56.1179 317.0
56.1848 356.0
56.2516 335.0
56.3185 297.0
56.3853 375.0
56.4522 315.0
56.519 336.0
56.5859 297.0
56.6527 307.0
56.7195 303.0
56.7864 352.0
56.8532 311.0
56.9201 311.0
56.9869 293.0
57.0538 308.0
57.1206 294.0
57.1875 294.0
57.2543 293.0
57.3212 285.0
57.388 297.0
57.4548 317.0
57.5217 267.0
57.5885 328.0
57.6554 294.0
57.7222 299.0
57.7891 295.0
57.8559 270.0
57.9228 297.0
57.9896 282.0
58.0564 272.0
58.1233 297.0
58.1901 314.0
58.257 285.0
58.3238 288.0
58.3907 298.0
58.4575 306.0
58.5244 316.0
58.5912 261.0
58.6581 291.0
58.7249 287.0
58.7917 273.0
58.8586 310.0
58.9254 300.0
58.9923 317.0
59.0591 287.0
59.126 319.0
59.1928 308.0
59.2597 279.0
59.3265 306.0
59.3933 295.0
59.4602 301.0
59.527 306.0
59.5939 302.0
59.6607 263.0
59.7276 288.0
59.7944 339.0
59.8613 282.0
59.9281 324.0
59.995 337.0
60.0618 307.0
60.1286 322.0
60.1955 278.0
60.2623 267.0
60.3292 317.0
60.396 287.0
60.4629 328.0
60.5297 287.0
60.5966 305.0
60.6634 298.0
60.7302 313.0
60.7971 314.0
60.8639 304.0
60.9308 273.0
60.9976 290.0
61.0645 294.0
61.1313 286.0
61.1982 293.0
61.265 266.0
61.3319 299.0
61.3987 288.0
61.4655 298.0
61.5324 294.0
61.5992 275.0
61.6661 277.0
61.7329 287.0
61.7998 291.0
61.8666 313.0
61.9335 290.0
62.0003 276.0
62.0672 297.0
62.134 277.0
62.2008 274.0
62.2677 277.0
62.3345 263.0
62.4014 264.0
62.4682 268.0
62.5351 278.0
62.6019 287.0
62.6688 280.0
62.7356 255.0
62.8024 299.0
62.8693 332.0
62.9361 269.0
63.003 254.0
63.0698 294.0
63.1367 293.0
63.2035 289.0
63.2704 299.0
63.3372 294.0
63.4041 258.0
63.4709 270.0
63.5377 302.0
63.6046 303.0
63.6714 274.0
63.7383 277.0
63.8051 257.0
63.872 279.0
63.9388 269.0
64.0057 268.0
64.0725 245.0
64.1393 260.0
64.2062 278.0
64.273 278.0
64.3399 292.0
64.4067 257.0
64.4736 305.0
64.5404 311.0
64.6073 268.0
64.6741 287.0
64.741 224.0
64.8078 286.0
64.8746 258.0
64.9415 282.0
65.0083 279.0
65.0752 250.0
65.142 263.0
65.2089 272.0
65.2757 266.0
65.3426 269.0
65.4094 326.0
65.4762 288.0
65.5431 284.0
65.6099 298.0
65.6768 256.0
65.7436 289.0
65.8105 278.0
65.8773 303.0
65.9442 267.0
66.011 291.0
66.0779 260.0
66.1447 255.0
66.2115 267.0
66.2784 273.0
66.3452 292.0
66.4121 288.0
66.4789 285.0
66.5458 272.0
66.6126 283.0
66.6795 266.0
66.7463 283.0
66.8132 275.0
66.88 292.0
66.9468 294.0
67.0137 285.0
67.0805 273.0
67.1474 290.0
67.2142 288.0
67.2811 300.0
67.3479 297.0
67.4148 280.0
67.4816 289.0
67.5484 275.0
67.6153 303.0
67.6821 315.0
67.749 298.0
67.8158 310.0
67.8827 271.0
67.9495 305.0
68.0164 270.0
68.0832 243.0
68.1501 233.0
68.2169 261.0
68.2837 293.0
68.3506 263.0
68.4174 266.0
68.4843 270.0
68.5511 279.0
68.618 287.0
68.6848 274.0
68.7517 257.0
68.8185 269.0
68.8853 278.0
68.9522 268.0
69.019 287.0
69.0859 283.0
69.1527 277.0
69.2196 280.0
69.2864 239.0
69.3533 280.0
69.4201 268.0
69.487 266.0
69.5538 276.0
69.6206 260.0
69.6875 271.0
69.7543 256.0
69.8212 268.0
69.888 248.0
69.9549 259.0
70.0217 278.0
70.0886 260.0
70.1554 264.0
70.2222 259.0
70.2891 288.0
70.3559 292.0
70.4228 278.0
70.4896 267.0
70.5565 282.0
70.6233 284.0
70.6902 238.0
70.757 236.0
70.8239 264.0
70.8907 261.0
70.9575 258.0
71.0244 273.0
71.0912 264.0
71.1581 258.0
71.2249 250.0
71.2918 227.0
71.3586 290.0
71.4255 266.0
71.4923 263.0
71.5592 239.0
71.626 253.0
71.6928 222.0
71.7597 258.0
71.8265 241.0
71.8934 273.0
71.9602 246.0
72.0271 247.0
72.0939 276.0
72.1608 222.0
72.2276 261.0
72.2944 269.0
72.3613 222.0
72.4281 274.0
72.495 241.0
72.5618 227.0
72.6287 250.0
72.6955 226.0
72.7624 238.0
72.8292 258.0
72.8961 268.0
72.9629 236.0
73.0297 274.0
73.0966 224.0
73.1634 264.0
73.2303 256.0
73.2971 231.0
73.364 227.0
73.4308 223.0
73.4977 231.0
73.5645 253.0
73.6313 230.0
73.6982 244.0
73.765 247.0
73.8319 227.0
73.8987 262.0
73.9656 219.0
74.0324 239.0
74.0993 215.0
74.1661 222.0
74.233 256.0
74.2998 243.0
74.3666 241.0
74.4335 237.0
74.5003 222.0
74.5672 212.0
74.634 241.0
74.7009 233.0
74.7677 245.0
74.8346 229.0
74.9014 211.0
74.9683 216.0
75.0351 241.0
75.1019 252.0
75.1688 237.0
75.2356 223.0
75.3025 209.0
75.3693 217.0
75.4362 219.0
75.503 227.0
75.5699 228.0
75.6367 233.0
75.7035 223.0
75.7704 250.0
75.8372 217.0
75.9041 236.0
75.9709 221.0
76.0378 224.0
76.1046 239.0
76.1715 224.0
76.2383 251.0
76.3052 230.0
76.372 197.0
76.4388 232.0
76.5057 203.0
76.5725 219.0
76.6394 227.0
76.7062 196.0
76.7731 207.0
76.8399 196.0
76.9068 217.0
76.9736 229.0
77.0404 209.0
77.1073 185.0
77.1741 210.0
77.241 209.0
77.3078 217.0
77.3747 237.0
77.4415 188.0
77.5084 216.0
77.5752 237.0
77.6421 242.0
77.7089 247.0
77.7757 217.0
77.8426 212.0
77.9094 183.0
77.9763 211.0
78.0431 220.0
78.11 222.0
78.1768 194.0
78.2437 200.0
78.3105 199.0
78.3773 205.0
78.4442 223.0
78.511 207.0
78.5779 207.0
78.6447 207.0
78.7116 201.0
78.7784 191.0
78.8453 193.0
78.9121 203.0
78.979 230.0
79.0458 198.0
79.1126 222.0
79.1795 219.0
79.2463 220.0
79.3132 216.0
79.38 205.0
79.4469 194.0
79.5137 186.0
79.5806 184.0
79.6474 195.0
79.7143 210.0
79.7811 213.0
79.8479 177.0
79.9148 176.0
79.9816 196.0
80.0485 200.0
80.1153 194.0
80.1822 177.0
80.249 184.0
80.3159 178.0
80.3827 191.0
80.4495 177.0
80.5164 189.0
80.5832 169.0
80.6501 176.0
80.7169 183.0
80.7838 196.0
80.8506 169.0
80.9175 183.0
80.9843 199.0
81.0512 149.0
81.118 178.0
81.1848 191.0
81.2517 179.0
81.3185 176.0
81.3854 176.0
81.4522 182.0
81.5191 198.0
81.5859 175.0
81.6528 157.0
81.7196 150.0
81.7864 158.0
81.8533 179.0
81.9201 178.0
81.987 167.0
82.0538 165.0
82.1207 191.0
82.1875 154.0
82.2544 196.0
82.3212 182.0
82.3881 180.0
82.4549 179.0
82.5217 189.0
82.5886 180.0
82.6554 172.0
82.7223 161.0
82.7891 181.0
82.856 192.0
82.9228 177.0
82.9897 147.0
83.0565 162.0
83.1233 186.0
83.1902 182.0
83.257 167.0
83.3239 162.0
83.3907 161.0
83.4576 158.0
83.5244 142.0
83.5913 164.0
83.6581 159.0
83.725 147.0
83.7918 153.0
83.8586 154.0
83.9255 179.0
83.9923 170.0
84.0592 157.0
84.126 167.0
84.1929 157.0
84.2597 172.0
84.3266 144.0
84.3934 166.0
84.4603 172.0
84.5271 148.0
84.5939 161.0
84.6608 143.0
84.7276 150.0
84.7945 182.0
84.8613 143.0
84.9282 131.0
84.995 166.0
85.0619 142.0
85.1287 139.0
85.1955 137.0
85.2624 129.0
85.3292 136.0
85.3961 145.0
85.4629 161.0
85.5298 146.0
85.5966 129.0
85.6635 150.0
85.7303 151.0
85.7972 145.0
85.864 148.0
85.9308 151.0
85.9977 138.0
86.0645 137.0
86.1314 161.0
86.1982 142.0
86.2651 131.0
86.3319 155.0
86.3988 147.0
86.4656 123.0
86.5324 128.0
86.5993 122.0
86.6661 126.0
86.733 166.0
86.7998 141.0
86.8667 127.0
86.9335 153.0
87.0004 148.0
87.0672 130.0
87.1341 139.0
87.2009 143.0
87.2677 147.0
87.3346 151.0
87.4014 141.0
87.4683 137.0
87.5351 127.0
87.602 168.0
87.6688 152.0
87.7357 148.0
87.8025 141.0
87.8693 129.0
87.9362 131.0
88.003 130.0
88.0699 117.0
88.1367 154.0
88.2036 135.0
88.2704 155.0
88.3373 153.0
88.4041 143.0
88.471 110.0
88.5378 158.0
88.6046 130.0
88.6715 147.0
88.7383 153.0
88.8052 152.0
88.872 111.0
88.9389 145.0
89.0057 157.0
89.0726 127.0
89.1394 133.0
89.2063 137.0
89.2731 139.0
89.3399 148.0
89.4068 126.0
89.4736 130.0
89.5405 138.0
89.6073 146.0
89.6742 148.0
89.741 127.0
89.8079 142.0
89.8747 114.0
89.9415 107.0