File: code/XRD_Analysis/External Sources/Alex_SAPO/20221110_SAPO-18_221103_calc550C.xy
4.98146 1735.0
5.0483 1680.0
5.11515 1613.0
5.18199 1574.0
5.24884 1614.0
5.31568 1586.0
5.38253 1504.0
5.44937 1501.0
5.51622 1417.0
5.58306 1442.0
5.64991 1481.0
5.71675 1432.0
5.7836 1406.0
5.85044 1360.0
5.91729 1368.0
5.98413 1377.0
6.05098 1350.0
6.11782 1328.0
6.18467 1266.0
6.25151 1248.0
6.31836 1218.0
6.3852 1243.0
6.45205 1216.0
6.51889 1252.0
6.58574 1209.0
6.65258 1137.0
6.71943 1132.0
6.78627 1211.0
6.85312 1168.0
6.91996 1094.0
6.98681 1179.0
7.05365 1115.0
7.1205 1078.0
7.18734 1110.0
7.25419 1059.0
7.32103 1044.0
7.38788 1013.0
7.45472 1059.0
7.52157 1042.0
7.58841 1082.0
7.65526 972.0
7.7221 1011.0
7.78895 1060.0
7.85579 932.0
7.92264 979.0
7.98948 938.0
8.05633 964.0
8.12317 963.0
8.19002 923.0
8.25686 1033.0
8.32371 896.0
8.39055 911.0
8.4574 917.0
8.52424 962.0
8.59109 943.0
8.65793 926.0
8.72478 920.0
8.79162 953.0
8.85847 913.0
8.92532 914.0
8.99216 899.0
9.05901 965.0
9.12585 1090.0
9.1927 1116.0
9.25954 1191.0
9.32639 1458.0
9.39323 2267.0
9.46008 3667.0
9.52692 5794.0
9.59377 6000.0
9.66061 4173.0
9.72746 2564.0
9.7943 1666.0
9.86115 1248.0
9.92799 1101.0
9.99484 1068.0
10.0617 988.0
10.1285 928.0
10.1954 976.0
10.2622 920.0
10.3291 966.0
10.3959 1020.0
10.4628 1109.0
10.5296 1192.0
10.5964 1457.0
10.6633 1685.0
10.7301 1531.0
10.797 1319.0
10.8638 1126.0
10.9307 992.0
10.9975 912.0
11.0644 842.0
11.1312 857.0
11.198 849.0
11.2649 812.0
11.3317 844.0
11.3986 778.0
11.4654 821.0
11.5323 764.0
11.5991 739.0
11.666 752.0
11.7328 794.0
11.7997 746.0
11.8665 674.0
11.9333 747.0
12.0002 759.0
12.067 732.0
12.1339 793.0
12.2007 744.0
12.2676 731.0
12.3344 782.0
12.4013 739.0
12.4681 782.0
12.5349 823.0
12.6018 754.0
12.6686 844.0
12.7355 847.0
12.8023 1065.0
12.8692 1325.0
12.936 1711.0
13.0029 1644.0
13.0697 1262.0
13.1366 949.0
13.2034 829.0
13.2702 849.0
13.3371 724.0
13.4039 868.0
13.4708 1050.0
13.5376 1091.0
13.6045 1078.0
13.6713 866.0
13.7382 836.0
13.805 781.0
13.8719 750.0
13.9387 761.0
14.0055 856.0
14.0724 873.0
14.1392 726.0
14.2061 704.0
14.2729 692.0
14.3398 699.0
14.4066 725.0
14.4735 723.0
14.5403 708.0
14.6071 723.0
14.674 725.0
14.7408 757.0
14.8077 785.0
14.8745 783.0
14.9414 727.0
15.0082 714.0
15.0751 725.0
15.1419 740.0
15.2088 760.0
15.2756 709.0
15.3424 755.0
15.4093 758.0
15.4761 704.0
15.543 740.0
15.6098 778.0
15.6767 737.0
15.7435 777.0
15.8104 793.0
15.8772 887.0
15.944 951.0
16.0109 1087.0
16.0777 1396.0
16.1446 1555.0
16.2114 1406.0
16.2783 1315.0
16.3451 1018.0
16.412 931.0
16.4788 872.0
16.5457 917.0
16.6125 909.0
16.6793 975.0
16.7462 1073.0
16.813 1221.0
16.8799 1407.0
16.9467 1902.0
17.0136 2356.0
17.0804 2246.0
17.1473 1935.0
17.2141 1704.0
17.2809 1719.0
17.3478 1681.0
17.4146 1581.0
17.4815 1399.0
17.5483 1226.0
17.6152 1088.0
17.682 1087.0
17.7489 953.0
17.8157 991.0
17.8826 933.0
17.9494 897.0
18.0162 929.0
18.0831 850.0
18.1499 861.0
18.2168 925.0
18.2836 929.0
18.3505 888.0
18.4173 920.0
18.4842 865.0
18.551 957.0
18.6179 937.0
18.6847 901.0
18.7515 988.0
18.8184 925.0
18.8852 974.0
18.9521 991.0
19.0189 1028.0
19.0858 1230.0
19.1526 1365.0
19.2195 1241.0
19.2863 1120.0
19.3531 1150.0
19.42 1063.0
19.4868 1066.0
19.5537 1062.0
19.6205 1253.0
19.6874 1259.0
19.7542 1265.0
19.8211 1232.0
19.8879 1212.0
19.9548 1199.0
20.0216 1292.0
20.0884 1315.0
20.1553 1446.0
20.2221 1476.0
20.289 1409.0
20.3558 1260.0
20.4227 1298.0
20.4895 1400.0
20.5564 1585.0
20.6232 1869.0
20.69 2102.0
20.7569 2181.0
20.8237 1941.0
20.8906 1596.0
20.9574 1457.0
21.0243 1426.0
21.0911 1360.0
21.158 1398.0
21.2248 1508.0
21.2917 1751.0
21.3585 1902.0
21.4253 2059.0
21.4922 2379.0
21.559 2018.0
21.6259 1778.0
21.6927 1502.0
21.7596 1398.0
21.8264 1367.0
21.8933 1309.0
21.9601 1325.0
22.0269 1318.0
22.0938 1316.0
22.1606 1309.0
22.2275 1360.0
22.2943 1255.0
22.3612 1336.0
22.428 1262.0
22.4949 1361.0
22.5617 1353.0
22.6286 1429.0
22.6954 1379.0
22.7622 1425.0
22.8291 1371.0
22.8959 1321.0
22.9628 1285.0
23.0296 1408.0
23.0965 1411.0
23.1633 1521.0
23.2302 1641.0
23.297 1550.0
23.3639 1517.0
23.4307 1505.0
23.4975 1409.0
23.5644 1450.0
23.6312 1505.0
23.6981 1616.0
23.7649 1640.0
23.8318 1918.0
23.8986 2098.0
23.9655 2447.0
24.0323 2650.0
24.0991 2728.0
24.166 2485.0
24.2328 2195.0
24.2997 1850.0
24.3665 1719.0
24.4334 1556.0
24.5002 1419.0
24.5671 1444.0
24.6339 1407.0
24.7008 1411.0
24.7676 1422.0
24.8344 1463.0
24.9013 1470.0
24.9681 1353.0
25.035 1418.0
25.1018 1474.0
25.1687 1437.0
25.2355 1430.0
25.3024 1495.0
25.3692 1471.0
25.436 1509.0
25.5029 1544.0
25.5697 1503.0
25.6366 1518.0
25.7034 1531.0
25.7703 1489.0
25.8371 1665.0
25.904 1726.0
25.9708 1855.0
26.0377 1939.0
26.1045 1934.0
26.1713 2001.0
26.2382 1849.0
26.305 1860.0
26.3719 1953.0
26.4387 2036.0
26.5056 2007.0
26.5724 1785.0
26.6393 1668.0
26.7061 1546.0
26.773 1451.0
26.8398 1338.0
26.9066 1319.0
26.9735 1348.0
27.0403 1351.0
27.1072 1394.0
27.174 1354.0
27.2409 1328.0
27.3077 1326.0
27.3746 1373.0
27.4414 1351.0
27.5082 1361.0
27.5751 1356.0
27.6419 1416.0
27.7088 1421.0
27.7756 1531.0
27.8425 1534.0
27.9093 1643.0
27.9762 1735.0
28.043 1872.0
28.1099 1841.0
28.1767 1866.0
28.2435 1844.0
28.3104 1571.0
28.3772 1464.0
28.4441 1503.0
28.5109 1394.0
28.5778 1417.0
28.6446 1370.0
28.7115 1350.0
28.7783 1316.0
28.8451 1333.0
28.912 1362.0
28.9788 1270.0
29.0457 1282.0
29.1125 1356.0
29.1794 1314.0
29.2462 1242.0
29.3131 1294.0
29.3799 1289.0
29.4468 1335.0
29.5136 1372.0
29.5804 1380.0
29.6473 1378.0
29.7141 1370.0
29.781 1410.0
29.8478 1458.0
29.9147 1496.0
29.9815 1459.0
30.0484 1550.0
30.1152 1641.0
30.182 1688.0
30.2489 1600.0
30.3157 1523.0
30.3826 1558.0
30.4494 1603.0
30.5163 1584.0
30.5831 1651.0
30.65 1666.0
30.7168 1675.0
30.7837 1708.0
30.8505 1632.0
30.9173 1656.0
30.9842 1721.0
31.051 1804.0
31.1179 2083.0
31.1847 2319.0
31.2516 2341.0
31.3184 2268.0
31.3853 2065.0
31.4521 1833.0
31.519 1611.0
31.5858 1552.0
31.6526 1424.0
31.7195 1369.0
31.7863 1378.0
31.8532 1317.0
31.92 1335.0
31.9869 1315.0
32.0537 1304.0
32.1206 1284.0
32.1874 1298.0
32.2542 1371.0
32.3211 1409.0
32.3879 1538.0
32.4548 1529.0
32.5216 1437.0
32.5885 1463.0
32.6553 1366.0
32.7222 1352.0
32.789 1350.0
32.8559 1380.0
32.9227 1364.0
32.9895 1375.0
33.0564 1332.0
33.1232 1240.0
33.1901 1195.0
33.2569 1085.0
33.3238 1067.0
33.3906 1081.0
33.4575 1071.0
33.5243 972.0
33.5911 963.0
33.658 950.0
33.7248 974.0
33.7917 1011.0
33.8585 978.0
33.9254 985.0
33.9922 902.0
34.0591 880.0
34.1259 914.0
34.1928 864.0
34.2596 865.0
34.3264 883.0
34.3933 939.0
34.4601 930.0
34.527 989.0
34.5938 891.0
34.6607 845.0
34.7275 887.0
34.7944 807.0
34.8612 835.0
34.928 901.0
34.9949 882.0
35.0617 867.0
35.1286 799.0
35.1954 857.0
35.2623 799.0
35.3291 761.0
35.396 790.0
35.4628 804.0
35.5297 854.0
35.5965 814.0
35.6633 738.0
35.7302 820.0
35.797 815.0
35.8639 794.0
35.9307 805.0
35.9976 801.0
36.0644 834.0
36.1313 769.0
36.1981 772.0
36.265 782.0
36.3318 771.0
36.3986 783.0
36.4655 768.0
36.5323 779.0
36.5992 800.0
36.666 812.0
36.7329 759.0
36.7997 779.0
36.8666 743.0
36.9334 717.0
37.0002 678.0
37.0671 736.0
37.1339 715.0
37.2008 669.0
37.2676 644.0
37.3345 650.0
37.4013 716.0
37.4682 726.0
37.535 708.0
37.6019 645.0
37.6687 639.0
37.7355 651.0
37.8024 675.0
37.8692 645.0
37.9361 686.0
38.0029 659.0
38.0698 629.0
38.1366 644.0
38.2035 657.0
38.2703 627.0
38.3371 633.0
38.404 659.0
38.4708 576.0
38.5377 603.0
38.6045 604.0
38.6714 636.0
38.7382 633.0
38.8051 662.0
38.8719 672.0
38.9388 662.0
39.0056 656.0
39.0724 661.0
39.1393 665.0
39.2061 691.0
39.273 670.0
39.3398 670.0
39.4067 672.0
39.4735 699.0
39.5404 678.0
39.6072 652.0
39.6741 654.0
39.7409 657.0
39.8077 656.0
39.8746 639.0
39.9414 661.0
40.0083 662.0
40.0751 637.0
40.142 598.0
40.2088 675.0
40.2757 651.0
40.3425 631.0
40.4093 613.0
40.4762 659.0
40.543 618.0
40.6099 630.0
40.6767 672.0
40.7436 592.0
40.8104 613.0
40.8773 648.0
40.9441 584.0
41.011 683.0
41.0778 646.0
41.1446 652.0
41.2115 623.0
41.2783 629.0
41.3452 662.0
41.412 657.0
41.4789 611.0
41.5457 682.0
41.6126 645.0
41.6794 661.0
41.7462 658.0
41.8131 673.0
41.8799 614.0
41.9468 607.0
42.0136 606.0
42.0805 635.0
42.1473 589.0
42.2142 603.0
42.281 597.0
42.3479 641.0
42.4147 584.0
42.4815 676.0
42.5484 603.0
42.6152 576.0
42.6821 595.0
42.7489 635.0
42.8158 634.0
42.8826 523.0
42.9495 599.0
43.0163 585.0
43.0831 667.0
43.15 654.0
43.2168 649.0
43.2837 664.0
43.3505 653.0
43.4174 626.0
43.4842 676.0
43.5511 679.0
43.6179 711.0
43.6848 615.0
43.7516 653.0
43.8184 602.0
43.8853 622.0
43.9521 589.0
44.019 619.0
44.0858 615.0
44.1527 573.0
44.2195 554.0
44.2864 571.0
44.3532 649.0
44.4201 580.0
44.4869 618.0
44.5537 590.0
44.6206 612.0
44.6874 639.0
44.7543 621.0
44.8211 613.0
44.888 617.0
44.9548 592.0
45.0217 612.0
45.0885 604.0
45.1553 637.0
45.2222 616.0
45.289 618.0
45.3559 602.0
45.4227 547.0
45.4896 617.0
45.5564 613.0
45.6233 589.0
45.6901 557.0
45.757 606.0
45.8238 578.0
45.8906 592.0
45.9575 558.0
46.0243 619.0
46.0912 594.0
46.158 579.0
46.2249 576.0
46.2917 561.0
46.3586 560.0
46.4254 540.0
46.4922 625.0
46.5591 559.0
46.6259 551.0
46.6928 571.0
46.7596 571.0
46.8265 600.0
46.8933 568.0
46.9602 568.0
47.027 618.0
47.0939 600.0
47.1607 589.0
47.2275 617.0
47.2944 520.0
47.3612 538.0
47.4281 532.0
47.4949 539.0
47.5618 605.0
47.6286 557.0
47.6955 565.0
47.7623 509.0
47.8291 535.0
47.896 541.0
47.9628 570.0
48.0297 563.0
48.0965 545.0
48.1634 566.0
48.2302 544.0
48.2971 534.0
48.3639 580.0
48.4308 566.0
48.4976 536.0
48.5644 531.0
48.6313 591.0
48.6981 523.0
48.765 574.0
48.8318 596.0
48.8987 567.0
48.9655 582.0
49.0324 614.0
49.0992 611.0
49.1661 559.0
49.2329 639.0
49.2997 627.0
49.3666 623.0
49.4334 615.0
49.5003 646.0
49.5671 669.0
49.634 559.0
49.7008 617.0
49.7677 570.0
49.8345 598.0
49.9013 580.0
49.9682 573.0
50.035 547.0
50.1019 617.0
50.1687 617.0
50.2356 590.0
50.3024 584.0
50.3693 569.0
50.4361 574.0
50.503 617.0
50.5698 664.0
50.6366 631.0
50.7035 574.0
50.7703 587.0
50.8372 594.0
50.904 580.0
50.9709 601.0
51.0377 565.0
51.1046 623.0
51.1714 581.0
51.2382 607.0
51.3051 552.0
51.3719 551.0
51.4388 531.0
51.5056 582.0
51.5725 580.0
51.6393 505.0
51.7062 522.0
51.773 551.0
51.8399 528.0
51.9067 514.0
51.9735 536.0
52.0404 511.0
52.1072 537.0
52.1741 504.0
52.2409 552.0
52.3078 491.0
52.3746 556.0
52.4415 506.0
52.5083 538.0
52.5751 473.0
52.642 520.0
52.7088 466.0
52.7757 529.0
52.8425 558.0
52.9094 517.0
52.9762 471.0
53.0431 522.0
53.1099 493.0
53.1768 506.0
53.2436 527.0
53.3104 498.0
53.3773 516.0
53.4441 535.0
53.511 547.0
53.5778 511.0
53.6447 540.0
53.7115 507.0
53.7784 491.0
53.8452 537.0
53.9121 509.0
53.9789 511.0
54.0457 527.0
54.1126 482.0
54.1794 501.0
54.2463 455.0
54.3131 503.0
54.38 509.0
54.4468 517.0
54.5137 501.0
54.5805 503.0
54.6473 481.0
54.7142 471.0
54.781 479.0
54.8479 489.0
54.9147 477.0
54.9816 540.0
55.0484 512.0
55.1153 496.0
55.1821 532.0
55.249 508.0
55.3158 525.0
55.3826 501.0
55.4495 497.0
55.5163 539.0
55.5832 505.0
55.65 510.0
55.7169 532.0
55.7837 526.0
55.8506 595.0
55.9174 541.0
55.9842 586.0
56.0511 531.0
56.1179 520.0
56.1848 516.0
56.2516 536.0
56.3185 498.0
56.3853 472.0
56.4522 482.0
56.519 488.0
56.5859 512.0
56.6527 508.0
56.7195 448.0
56.7864 454.0
56.8532 486.0
56.9201 501.0
56.9869 492.0
57.0538 460.0
57.1206 514.0
57.1875 513.0
57.2543 534.0
57.3212 456.0
57.388 485.0
57.4548 446.0
57.5217 473.0
57.5885 502.0
57.6554 495.0
57.7222 457.0
57.7891 470.0
57.8559 481.0
57.9228 459.0
57.9896 454.0
58.0564 483.0
58.1233 501.0
58.1901 457.0
58.257 455.0
58.3238 501.0
58.3907 498.0
58.4575 471.0
58.5244 465.0
58.5912 449.0
58.6581 432.0
58.7249 476.0
58.7917 456.0
58.8586 457.0
58.9254 467.0
58.9923 491.0
59.0591 490.0
59.126 462.0
59.1928 516.0
59.2597 509.0
59.3265 470.0
59.3933 457.0
59.4602 458.0
59.527 438.0
59.5939 486.0
59.6607 469.0
59.7276 469.0
59.7944 475.0
59.8613 478.0
59.9281 518.0
59.995 483.0
60.0618 449.0
60.1286 489.0
60.1955 505.0
60.2623 479.0
60.3292 476.0
60.396 454.0
60.4629 416.0
60.5297 463.0
60.5966 493.0
60.6634 483.0
60.7302 481.0
60.7971 487.0
60.8639 461.0
60.9308 479.0
60.9976 441.0
61.0645 442.0
61.1313 492.0
61.1982 497.0
61.265 481.0
61.3319 493.0
61.3987 461.0
61.4655 459.0
61.5324 453.0
61.5992 473.0
61.6661 494.0
61.7329 502.0
61.7998 463.0
61.8666 469.0
61.9335 463.0
62.0003 416.0
62.0672 466.0
62.134 467.0
62.2008 455.0
62.2677 455.0
62.3345 453.0
62.4014 485.0
62.4682 447.0
62.5351 456.0
62.6019 479.0
62.6688 461.0
62.7356 460.0
62.8024 429.0
62.8693 446.0
62.9361 470.0
63.003 489.0
63.0698 417.0
63.1367 426.0
63.2035 471.0
63.2704 456.0
63.3372 483.0
63.4041 436.0
63.4709 454.0
63.5377 442.0
63.6046 460.0
63.6714 467.0
63.7383 496.0
63.8051 445.0
63.872 399.0
63.9388 502.0
64.0057 461.0
64.0725 408.0
64.1393 453.0
64.2062 479.0
64.273 475.0
64.3399 428.0
64.4067 419.0
64.4736 475.0
64.5404 477.0
64.6073 406.0
64.6741 417.0
64.741 460.0
64.8078 450.0
64.8746 439.0
64.9415 491.0
65.0083 470.0
65.0752 471.0
65.142 428.0
65.2089 465.0
65.2757 474.0
65.3426 493.0
65.4094 479.0
65.4762 481.0
65.5431 503.0
65.6099 476.0
65.6768 457.0
65.7436 477.0
65.8105 477.0
65.8773 465.0
65.9442 453.0
66.011 469.0
66.0779 462.0
66.1447 474.0
66.2115 463.0
66.2784 446.0
66.3452 474.0
66.4121 465.0
66.4789 488.0
66.5458 466.0
66.6126 472.0
66.6795 473.0
66.7463 456.0
66.8132 477.0
66.88 482.0
66.9468 454.0
67.0137 471.0
67.0805 517.0
67.1474 486.0
67.2142 510.0
67.2811 481.0
67.3479 486.0
67.4148 476.0
67.4816 447.0
67.5484 457.0
67.6153 458.0
67.6821 435.0
67.749 420.0
67.8158 442.0
67.8827 480.0
67.9495 456.0
68.0164 466.0
68.0832 430.0
68.1501 456.0
68.2169 443.0
68.2837 467.0
68.3506 463.0
68.4174 453.0
68.4843 429.0
68.5511 453.0
68.618 412.0
68.6848 420.0
68.7517 418.0
68.8185 436.0
68.8853 445.0
68.9522 434.0
69.019 400.0
69.0859 431.0
69.1527 432.0
69.2196 427.0
69.2864 414.0
69.3533 423.0
69.4201 408.0
69.487 410.0
69.5538 396.0
69.6206 419.0
69.6875 430.0
69.7543 406.0
69.8212 443.0
69.888 414.0
69.9549 401.0
70.0217 416.0
70.0886 436.0
70.1554 413.0
70.2222 459.0
70.2891 427.0
70.3559 417.0
70.4228 446.0
70.4896 418.0
70.5565 414.0
70.6233 422.0
70.6902 424.0
70.757 426.0
70.8239 413.0
70.8907 397.0
70.9575 409.0
71.0244 454.0
71.0912 394.0
71.1581 398.0
71.2249 380.0
71.2918 411.0
71.3586 357.0
71.4255 410.0
71.4923 386.0
71.5592 393.0
71.626 384.0
71.6928 376.0
71.7597 378.0
71.8265 410.0
71.8934 434.0
71.9602 379.0
72.0271 404.0
72.0939 350.0
72.1608 398.0
72.2276 378.0
72.2944 383.0
72.3613 409.0
72.4281 366.0
72.495 381.0
72.5618 368.0
72.6287 388.0
72.6955 345.0
72.7624 399.0
72.8292 391.0
72.8961 406.0
72.9629 357.0
73.0297 384.0
73.0966 348.0
73.1634 402.0
73.2303 373.0
73.2971 389.0
73.364 366.0
73.4308 384.0
73.4977 384.0
73.5645 361.0
73.6313 423.0
73.6982 349.0
73.765 386.0
73.8319 384.0
73.8987 354.0
73.9656 355.0
74.0324 349.0
74.0993 361.0
74.1661 347.0
74.233 358.0
74.2998 377.0
74.3666 391.0
74.4335 357.0
74.5003 381.0
74.5672 365.0
74.634 325.0
74.7009 365.0
74.7677 358.0
74.8346 393.0
74.9014 341.0
74.9683 364.0
75.0351 325.0
75.1019 361.0
75.1688 417.0
75.2356 350.0
75.3025 384.0
75.3693 336.0
75.4362 382.0
75.503 372.0
75.5699 373.0
75.6367 363.0
75.7035 354.0
75.7704 414.0
75.8372 378.0
75.9041 318.0
75.9709 378.0
76.0378 369.0
76.1046 321.0
76.1715 319.0
76.2383 334.0
76.3052 333.0
76.372 346.0
76.4388 348.0
76.5057 344.0
76.5725 363.0
76.6394 380.0
76.7062 346.0
76.7731 349.0
76.8399 387.0
76.9068 333.0
76.9736 337.0
77.0404 341.0
77.1073 355.0
77.1741 367.0
77.241 353.0
77.3078 344.0
77.3747 345.0
77.4415 341.0
77.5084 351.0
77.5752 368.0
77.6421 342.0
77.7089 346.0
77.7757 364.0
77.8426 349.0
77.9094 313.0
77.9763 292.0
78.0431 362.0
78.11 350.0
78.1768 342.0
78.2437 351.0
78.3105 351.0
78.3773 324.0
78.4442 357.0
78.511 381.0
78.5779 334.0
78.6447 317.0
78.7116 326.0
78.7784 353.0
78.8453 349.0
78.9121 326.0
78.979 326.0
79.0458 299.0
79.1126 313.0
79.1795 358.0
79.2463 354.0
79.3132 334.0
79.38 335.0
79.4469 293.0
79.5137 337.0
79.5806 288.0
79.6474 333.0
79.7143 329.0
79.7811 357.0
79.8479 316.0
79.9148 318.0
79.9816 313.0
80.0485 306.0
80.1153 313.0
80.1822 302.0
80.249 319.0
80.3159 319.0
80.3827 261.0
80.4495 348.0
80.5164 309.0
80.5832 284.0
80.6501 275.0
80.7169 303.0
80.7838 300.0
80.8506 292.0
80.9175 325.0
80.9843 310.0
81.0512 304.0
81.118 329.0
81.1848 337.0
81.2517 285.0
81.3185 350.0
81.3854 326.0
81.4522 309.0
81.5191 315.0
81.5859 289.0
81.6528 301.0
81.7196 295.0
81.7864 297.0
81.8533 295.0
81.9201 286.0
81.987 315.0
82.0538 310.0
82.1207 280.0
82.1875 310.0
82.2544 271.0
82.3212 267.0
82.3881 299.0
82.4549 290.0
82.5217 285.0
82.5886 292.0
82.6554 254.0
82.7223 280.0
82.7891 319.0
82.856 278.0
82.9228 255.0
82.9897 273.0
83.0565 277.0
83.1233 301.0
83.1902 290.0
83.257 293.0
83.3239 294.0
83.3907 291.0
83.4576 270.0
83.5244 262.0
83.5913 301.0
83.6581 268.0
83.725 262.0
83.7918 298.0
83.8586 262.0
83.9255 253.0
83.9923 270.0
84.0592 283.0
84.126 248.0
84.1929 268.0
84.2597 285.0
84.3266 274.0
84.3934 246.0
84.4603 276.0
84.5271 276.0
84.5939 282.0
84.6608 261.0
84.7276 288.0
84.7945 283.0
84.8613 280.0
84.9282 247.0
84.995 256.0
85.0619 299.0
85.1287 251.0
85.1955 254.0
85.2624 273.0
85.3292 235.0
85.3961 256.0
85.4629 270.0
85.5298 258.0
85.5966 262.0
85.6635 251.0
85.7303 290.0
85.7972 280.0
85.864 260.0
85.9308 239.0
85.9977 258.0
86.0645 211.0
86.1314 255.0
86.1982 256.0
86.2651 220.0
86.3319 257.0
86.3988 248.0
86.4656 226.0
86.5324 248.0
86.5993 257.0
86.6661 236.0
86.733 230.0
86.7998 250.0
86.8667 233.0
86.9335 237.0
87.0004 257.0
87.0672 257.0
87.1341 245.0
87.2009 279.0
87.2677 262.0
87.3346 228.0
87.4014 238.0
87.4683 255.0
87.5351 239.0
87.602 231.0
87.6688 245.0
87.7357 255.0
87.8025 228.0
87.8693 232.0
87.9362 215.0
88.003 259.0
88.0699 221.0
88.1367 256.0
88.2036 256.0
88.2704 232.0
88.3373 237.0
88.4041 245.0
88.471 213.0
88.5378 217.0
88.6046 224.0
88.6715 242.0
88.7383 220.0
88.8052 201.0
88.872 236.0
88.9389 198.0
89.0057 208.0
89.0726 225.0
89.1394 220.0
89.2063 213.0
89.2731 240.0
89.3399 210.0
89.4068 203.0
89.4736 239.0
89.5405 206.0
89.6073 230.0
89.6742 213.0
89.741 216.0
89.8079 190.0
89.8747 214.0
89.9415 239.0