File: code/XRD_Analysis/External Sources/Alex_SAPO/20220715_SAPO-34_70_1_220707_precalc.xy
4.98146 1512.0
5.0483 1441.0
5.11515 1392.0
5.18199 1419.0
5.24884 1381.0
5.31568 1335.0
5.38253 1329.0
5.44937 1310.0
5.51622 1355.0
5.58306 1316.0
5.64991 1263.0
5.71675 1218.0
5.7836 1224.0
5.85044 1222.0
5.91729 1242.0
5.98413 1230.0
6.05098 1174.0
6.11782 1128.0
6.18467 1153.0
6.25151 1154.0
6.31836 1166.0
6.3852 1113.0
6.45205 1132.0
6.51889 1141.0
6.58574 1081.0
6.65258 1131.0
6.71943 1070.0
6.78627 1033.0
6.85312 1031.0
6.91996 1034.0
6.98681 1071.0
7.05365 984.0
7.1205 1029.0
7.18734 988.0
7.25419 1022.0
7.32103 1007.0
7.38788 1000.0
7.45472 956.0
7.52157 963.0
7.58841 970.0
7.65526 940.0
7.7221 922.0
7.78895 959.0
7.85579 917.0
7.92264 865.0
7.98948 951.0
8.05633 925.0
8.12317 899.0
8.19002 882.0
8.25686 860.0
8.32371 900.0
8.39055 899.0
8.4574 866.0
8.52424 948.0
8.59109 910.0
8.65793 883.0
8.72478 896.0
8.79162 924.0
8.85847 876.0
8.92532 928.0
8.99216 912.0
9.05901 969.0
9.12585 1062.0
9.1927 1166.0
9.25954 1783.0
9.32639 4117.0
9.39323 12357.0
9.46008 21360.0
9.52692 7418.0
9.59377 1839.0
9.66061 1326.0
9.72746 1183.0
9.7943 1152.0
9.86115 1028.0
9.92799 993.0
9.99484 948.0
10.0617 941.0
10.1285 900.0
10.1954 877.0
10.2622 894.0
10.3291 860.0
10.3959 855.0
10.4628 852.0
10.5296 832.0
10.5964 864.0
10.6633 835.0
10.7301 789.0
10.797 860.0
10.8638 855.0
10.9307 814.0
10.9975 833.0
11.0644 810.0
11.1312 775.0
11.198 775.0
11.2649 808.0
11.3317 822.0
11.3986 825.0
11.4654 781.0
11.5323 844.0
11.5991 797.0
11.666 782.0
11.7328 774.0
11.7997 764.0
11.8665 806.0
11.9333 784.0
12.0002 803.0
12.067 759.0
12.1339 795.0
12.2007 797.0
12.2676 753.0
12.3344 848.0
12.4013 783.0
12.4681 809.0
12.5349 884.0
12.6018 931.0
12.6686 1296.0
12.7355 2945.0
12.8023 4204.0
12.8692 1775.0
12.936 932.0
13.0029 863.0
13.0697 801.0
13.1366 833.0
13.2034 864.0
13.2702 788.0
13.3371 699.0
13.4039 706.0
13.4708 669.0
13.5376 641.0
13.6045 724.0
13.6713 743.0
13.7382 750.0
13.805 868.0
13.8719 1165.0
13.9387 1757.0
14.0055 1898.0
14.0724 1377.0
14.1392 951.0
14.2061 835.0
14.2729 842.0
14.3398 851.0
14.4066 870.0
14.4735 899.0
14.5403 837.0
14.6071 894.0
14.674 829.0
14.7408 844.0
14.8077 840.0
14.8745 877.0
14.9414 876.0
15.0082 788.0
15.0751 833.0
15.1419 872.0
15.2088 882.0
15.2756 930.0
15.3424 856.0
15.4093 971.0
15.4761 935.0
15.543 974.0
15.6098 974.0
15.6767 1063.0
15.7435 1284.0
15.8104 2063.0
15.8772 6007.0
15.944 12083.0
16.0109 6574.0
16.0777 1767.0
16.1446 1260.0
16.2114 1224.0
16.2783 1149.0
16.3451 1228.0
16.412 1239.0
16.4788 1352.0
16.5457 1359.0
16.6125 1373.0
16.6793 1450.0
16.7462 1438.0
16.813 1441.0
16.8799 1487.0
16.9467 1501.0
17.0136 1445.0
17.0804 1403.0
17.1473 1459.0
17.2141 1419.0
17.2809 1459.0
17.3478 1421.0
17.4146 1270.0
17.4815 1340.0
17.5483 1330.0
17.6152 1317.0
17.682 1444.0
17.7489 1720.0
17.8157 2506.0
17.8826 2987.0
17.9494 2581.0
18.0162 1562.0
18.0831 1322.0
18.1499 1215.0
18.2168 1169.0
18.2836 1070.0
18.3505 1088.0
18.4173 1105.0
18.4842 1087.0
18.551 1087.0
18.6179 1010.0
18.6847 1052.0
18.7515 988.0
18.8184 1107.0
18.8852 1296.0
18.9521 1430.0
19.0189 1427.0
19.0858 1137.0
19.1526 1146.0
19.2195 1104.0
19.2863 1179.0
19.3531 1267.0
19.42 1190.0
19.4868 1356.0
19.5537 1409.0
19.6205 1382.0
19.6874 1451.0
19.7542 1516.0
19.8211 1572.0
19.8879 1627.0
19.9548 1635.0
20.0216 1653.0
20.0884 1816.0
20.1553 1856.0
20.2221 2031.0
20.289 2307.0
20.3558 3586.0
20.4227 9955.0
20.4895 20007.0
20.5564 15008.0
20.6232 5755.0
20.69 3212.0
20.7569 2547.0
20.8237 2362.0
20.8906 2290.0
20.9574 2237.0
21.0243 2238.0
21.0911 2157.0
21.158 2164.0
21.2248 2054.0
21.2917 1947.0
21.3585 1645.0
21.4253 1403.0
21.4922 1179.0
21.559 1005.0
21.6259 868.0
21.6927 841.0
21.7596 812.0
21.8264 835.0
21.8933 973.0
21.9601 1231.0
22.0269 1343.0
22.0938 1271.0
22.1606 1134.0
22.2275 1091.0
22.2943 1147.0
22.3612 994.0
22.428 909.0
22.4949 927.0
22.5617 922.0
22.6286 946.0
22.6954 978.0
22.7622 1002.0
22.8291 993.0
22.8959 1275.0
22.9628 1969.0
23.0296 2516.0
23.0965 1761.0
23.1633 1191.0
23.2302 1072.0
23.297 1080.0
23.3639 1081.0
23.4307 1151.0
23.4975 1141.0
23.5644 1119.0
23.6312 1165.0
23.6981 1198.0
23.7649 1238.0
23.8318 1214.0
23.8986 1259.0
23.9655 1354.0
24.0323 1349.0
24.0991 1427.0
24.166 1401.0
24.2328 1348.0
24.2997 1393.0
24.3665 1499.0
24.4334 1503.0
24.5002 1552.0
24.5671 1586.0
24.6339 1551.0
24.7008 1603.0
24.7676 1696.0
24.8344 1744.0
24.9013 2032.0
24.9681 2703.0
25.035 3614.0
25.1018 4199.0
25.1687 3423.0
25.2355 2483.0
25.3024 1928.0
25.3692 1789.0
25.436 1649.0
25.5029 1657.0
25.5697 1712.0
25.6366 2110.0
25.7034 3702.0
25.7703 5501.0
25.8371 4331.0
25.904 2385.0
25.9708 1598.0
26.0377 1408.0
26.1045 1424.0
26.1713 1363.0
26.2382 1297.0
26.305 1318.0
26.3719 1221.0
26.4387 1168.0
26.5056 1201.0
26.5724 1163.0
26.6393 1130.0
26.7061 1110.0
26.773 1059.0
26.8398 1056.0
26.9066 1003.0
26.9735 974.0
27.0403 909.0
27.1072 928.0
27.174 884.0
27.2409 873.0
27.3077 937.0
27.3746 974.0
27.4414 1291.0
27.5082 1868.0
27.5751 1624.0
27.6419 1163.0
27.7088 945.0
27.7756 901.0
27.8425 853.0
27.9093 883.0
27.9762 1017.0
28.043 1148.0
28.1099 1243.0
28.1767 1226.0
28.2435 1372.0
28.3104 1335.0
28.3772 1174.0
28.4441 982.0
28.5109 913.0
28.5778 855.0
28.6446 891.0
28.7115 857.0
28.7783 863.0
28.8451 853.0
28.912 838.0
28.9788 896.0
29.0457 904.0
29.1125 927.0
29.1794 933.0
29.2462 950.0
29.3131 1148.0
29.3799 1698.0
29.4468 1952.0
29.5136 1816.0
29.5804 1320.0
29.6473 1203.0
29.7141 1276.0
29.781 1435.0
29.8478 1439.0
29.9147 1502.0
29.9815 1658.0
30.0484 1767.0
30.1152 2049.0
30.182 2340.0
30.2489 2602.0
30.3157 3068.0
30.3826 4357.0
30.4494 6094.0
30.5163 6059.0
30.5831 4632.0
30.65 3366.0
30.7168 2975.0
30.7837 2925.0
30.8505 3205.0
30.9173 3485.0
30.9842 4113.0
31.051 4473.0
31.1179 4595.0
31.1847 4240.0
31.2516 3343.0
31.3184 2334.0
31.3853 1910.0
31.4521 1638.0
31.519 1824.0
31.5858 1902.0
31.6526 1632.0
31.7195 1448.0
31.7863 1267.0
31.8532 1323.0
31.92 1094.0
31.9869 1209.0
32.0537 1225.0
32.1206 1173.0
32.1874 1325.0
32.2542 1512.0
32.3211 1346.0
32.3879 1206.0
32.4548 979.0
32.5216 962.0
32.5885 886.0
32.6553 918.0
32.7222 901.0
32.789 892.0
32.8559 837.0
32.9227 850.0
32.9895 829.0
33.0564 855.0
33.1232 917.0
33.1901 925.0
33.2569 942.0
33.3238 878.0
33.3906 825.0
33.4575 828.0
33.5243 839.0
33.5911 930.0
33.658 1002.0
33.7248 1029.0
33.7917 979.0
33.8585 851.0
33.9254 851.0
33.9922 914.0
34.0591 872.0
34.1259 967.0
34.1928 1012.0
34.2596 1250.0
34.3264 1570.0
34.3933 1619.0
34.4601 1235.0
34.527 992.0
34.5938 799.0
34.6607 752.0
34.7275 729.0
34.7944 759.0
34.8612 814.0
34.928 734.0
34.9949 646.0
35.0617 650.0
35.1286 584.0
35.1954 606.0
35.2623 620.0
35.3291 602.0
35.396 615.0
35.4628 625.0
35.5297 615.0
35.5965 598.0
35.6633 613.0
35.7302 570.0
35.797 633.0
35.8639 741.0
35.9307 817.0
35.9976 881.0
36.0644 938.0
36.1313 1079.0
36.1981 1116.0
36.265 1002.0
36.3318 766.0
36.3986 632.0
36.4655 617.0
36.5323 545.0
36.5992 485.0
36.666 580.0
36.7329 544.0
36.7997 480.0
36.8666 527.0
36.9334 544.0
37.0002 512.0
37.0671 517.0
37.1339 533.0
37.2008 502.0
37.2676 550.0
37.3345 542.0
37.4013 550.0
37.4682 520.0
37.535 553.0
37.6019 545.0
37.6687 558.0
37.7355 507.0
37.8024 545.0
37.8692 549.0
37.9361 571.0
38.0029 600.0
38.0698 626.0
38.1366 644.0
38.2035 633.0
38.2703 585.0
38.3371 573.0
38.404 611.0
38.4708 638.0
38.5377 725.0
38.6045 786.0
38.6714 885.0
38.7382 857.0
38.8051 714.0
38.8719 725.0
38.9388 768.0
39.0056 729.0
39.0724 776.0
39.1393 801.0
39.2061 732.0
39.273 766.0
39.3398 766.0
39.4067 768.0
39.4735 863.0
39.5404 1029.0
39.6072 1025.0
39.6741 887.0
39.7409 676.0
39.8077 590.0
39.8746 569.0
39.9414 544.0
40.0083 525.0
40.0751 494.0
40.142 512.0
40.2088 525.0
40.2757 535.0
40.3425 493.0
40.4093 501.0
40.4762 473.0
40.543 475.0
40.6099 435.0
40.6767 488.0
40.7436 482.0
40.8104 496.0
40.8773 521.0
40.9441 494.0
41.011 559.0
41.0778 445.0
41.1446 476.0
41.2115 460.0
41.2783 503.0
41.3452 500.0
41.412 497.0
41.4789 469.0
41.5457 511.0
41.6126 512.0
41.6794 550.0
41.7462 571.0
41.8131 545.0
41.8799 541.0
41.9468 487.0
42.0136 490.0
42.0805 448.0
42.1473 471.0
42.2142 483.0
42.281 458.0
42.3479 486.0
42.4147 488.0
42.4815 523.0
42.5484 522.0
42.6152 477.0
42.6821 536.0
42.7489 605.0
42.8158 663.0
42.8826 810.0
42.9495 914.0
43.0163 967.0
43.0831 1005.0
43.15 1042.0
43.2168 1070.0
43.2837 1113.0
43.3505 1073.0
43.4174 950.0
43.4842 828.0
43.5511 720.0
43.6179 654.0
43.6848 611.0
43.7516 547.0
43.8184 581.0
43.8853 596.0
43.9521 555.0
44.019 497.0
44.0858 548.0
44.1527 531.0
44.2195 534.0
44.2864 516.0
44.3532 477.0
44.4201 487.0
44.4869 489.0
44.5537 478.0
44.6206 463.0
44.6874 471.0
44.7543 434.0
44.8211 454.0
44.888 441.0
44.9548 531.0
45.0217 522.0
45.0885 503.0
45.1553 498.0
45.2222 500.0
45.289 422.0
45.3559 443.0
45.4227 458.0
45.4896 426.0
45.5564 415.0
45.6233 401.0
45.6901 401.0
45.757 442.0
45.8238 428.0
45.8906 404.0
45.9575 389.0
46.0243 429.0
46.0912 439.0
46.158 429.0
46.2249 384.0
46.2917 398.0
46.3586 444.0
46.4254 482.0
46.4922 513.0
46.5591 556.0
46.6259 559.0
46.6928 509.0
46.7596 510.0
46.8265 489.0
46.8933 548.0
46.9602 535.0
47.027 521.0
47.0939 570.0
47.1607 575.0
47.2275 612.0
47.2944 651.0
47.3612 736.0
47.4281 882.0
47.4949 948.0
47.5618 909.0
47.6286 789.0
47.6955 657.0
47.7623 574.0
47.8291 495.0
47.896 503.0
47.9628 569.0
48.0297 494.0
48.0965 520.0
48.1634 516.0
48.2302 553.0
48.2971 504.0
48.3639 532.0
48.4308 543.0
48.4976 551.0
48.5644 652.0
48.6313 742.0
48.6981 885.0
48.765 1235.0
48.8318 1580.0
48.8987 1913.0
48.9655 1757.0
49.0324 1501.0
49.0992 1087.0
49.1661 786.0
49.2329 668.0
49.2997 679.0
49.3666 672.0
49.4334 679.0
49.5003 701.0
49.5671 731.0
49.634 721.0
49.7008 713.0
49.7677 747.0
49.8345 719.0
49.9013 808.0
49.9682 758.0
50.035 830.0
50.1019 855.0
50.1687 778.0
50.2356 716.0
50.3024 700.0
50.3693 698.0
50.4361 712.0
50.503 649.0
50.5698 677.0
50.6366 717.0
50.7035 860.0
50.7703 989.0
50.8372 1128.0
50.904 1130.0
50.9709 1022.0
51.0377 881.0
51.1046 819.0
51.1714 754.0
51.2382 717.0
51.3051 639.0
51.3719 730.0
51.4388 675.0
51.5056 712.0
51.5725 682.0
51.6393 684.0
51.7062 676.0
51.773 519.0
51.8399 508.0
51.9067 520.0
51.9735 478.0
52.0404 489.0
52.1072 471.0
52.1741 467.0
52.2409 483.0
52.3078 450.0
52.3746 477.0
52.4415 510.0
52.5083 449.0
52.5751 482.0
52.642 472.0
52.7088 510.0
52.7757 553.0
52.8425 558.0
52.9094 668.0
52.9762 950.0
53.0431 1091.0
53.1099 1033.0
53.1768 879.0
53.2436 766.0
53.3104 658.0
53.3773 613.0
53.4441 579.0
53.511 572.0
53.5778 580.0
53.6447 564.0
53.7115 534.0
53.7784 527.0
53.8452 522.0
53.9121 560.0
53.9789 544.0
54.0457 518.0
54.1126 532.0
54.1794 507.0
54.2463 560.0
54.3131 612.0
54.38 725.0
54.4468 735.0
54.5137 730.0
54.5805 680.0
54.6473 586.0
54.7142 503.0
54.781 454.0
54.8479 486.0
54.9147 506.0
54.9816 529.0
55.0484 584.0
55.1153 591.0
55.1821 612.0
55.249 623.0
55.3158 693.0
55.3826 661.0
55.4495 719.0
55.5163 814.0
55.5832 846.0
55.65 913.0
55.7169 896.0
55.7837 958.0
55.8506 910.0
55.9174 835.0
55.9842 766.0
56.0511 686.0
56.1179 691.0
56.1848 738.0
56.2516 693.0
56.3185 639.0
56.3853 561.0
56.4522 549.0
56.519 478.0
56.5859 441.0
56.6527 444.0
56.7195 449.0
56.7864 433.0
56.8532 422.0
56.9201 440.0
56.9869 458.0
57.0538 447.0
57.1206 429.0
57.1875 384.0
57.2543 398.0
57.3212 401.0
57.388 413.0
57.4548 406.0
57.5217 383.0
57.5885 373.0
57.6554 423.0
57.7222 329.0
57.7891 378.0
57.8559 361.0
57.9228 368.0
57.9896 382.0
58.0564 376.0
58.1233 370.0
58.1901 363.0
58.257 379.0
58.3238 382.0
58.3907 385.0
58.4575 436.0
58.5244 434.0
58.5912 457.0
58.6581 396.0
58.7249 427.0
58.7917 420.0
58.8586 381.0
58.9254 373.0
58.9923 355.0
59.0591 344.0
59.126 419.0
59.1928 489.0
59.2597 512.0
59.3265 555.0
59.3933 660.0
59.4602 713.0
59.527 731.0
59.5939 638.0
59.6607 561.0
59.7276 553.0
59.7944 438.0
59.8613 423.0
59.9281 450.0
59.995 436.0
60.0618 423.0
60.1286 413.0
60.1955 432.0
60.2623 446.0
60.3292 441.0
60.396 407.0
60.4629 471.0
60.5297 464.0
60.5966 516.0
60.6634 514.0
60.7302 634.0
60.7971 716.0
60.8639 627.0
60.9308 619.0
60.9976 590.0
61.0645 629.0
61.1313 639.0
61.1982 732.0
61.265 727.0
61.3319 621.0
61.3987 643.0
61.4655 573.0
61.5324 488.0
61.5992 532.0
61.6661 433.0
61.7329 429.0
61.7998 442.0
61.8666 447.0
61.9335 423.0
62.0003 487.0
62.0672 529.0
62.134 525.0
62.2008 535.0
62.2677 449.0
62.3345 509.0
62.4014 501.0
62.4682 532.0
62.5351 542.0
62.6019 498.0
62.6688 506.0
62.7356 495.0
62.8024 487.0
62.8693 503.0
62.9361 482.0
63.003 519.0
63.0698 447.0
63.1367 521.0
63.2035 542.0
63.2704 509.0
63.3372 493.0
63.4041 467.0
63.4709 495.0
63.5377 487.0
63.6046 459.0
63.6714 433.0
63.7383 474.0
63.8051 424.0
63.872 447.0
63.9388 454.0
64.0057 467.0
64.0725 430.0
64.1393 441.0
64.2062 478.0
64.273 497.0
64.3399 420.0
64.4067 429.0
64.4736 436.0
64.5404 492.0
64.6073 450.0
64.6741 456.0
64.741 469.0
64.8078 481.0
64.8746 451.0
64.9415 474.0
65.0083 429.0
65.0752 465.0
65.142 455.0
65.2089 441.0
65.2757 409.0
65.3426 435.0
65.4094 412.0
65.4762 428.0
65.5431 427.0
65.6099 427.0
65.6768 428.0
65.7436 482.0
65.8105 480.0
65.8773 550.0
65.9442 677.0
66.011 690.0
66.0779 722.0
66.1447 699.0
66.2115 622.0
66.2784 696.0
66.3452 642.0
66.4121 663.0
66.4789 699.0
66.5458 688.0
66.6126 714.0
66.6795 665.0
66.7463 676.0
66.8132 680.0
66.88 684.0
66.9468 643.0
67.0137 639.0
67.0805 634.0
67.1474 728.0
67.2142 662.0
67.2811 630.0
67.3479 669.0
67.4148 614.0
67.4816 510.0
67.5484 494.0
67.6153 478.0
67.6821 469.0
67.749 428.0
67.8158 419.0
67.8827 409.0
67.9495 398.0
68.0164 387.0
68.0832 422.0
68.1501 387.0
68.2169 394.0
68.2837 375.0
68.3506 360.0
68.4174 388.0
68.4843 404.0
68.5511 396.0
68.618 417.0
68.6848 414.0
68.7517 404.0
68.8185 440.0
68.8853 457.0
68.9522 540.0
69.019 586.0
69.0859 573.0
69.1527 542.0
69.2196 510.0
69.2864 489.0
69.3533 547.0
69.4201 472.0
69.487 500.0
69.5538 508.0
69.6206 553.0
69.6875 552.0
69.7543 544.0
69.8212 582.0
69.888 587.0
69.9549 570.0
70.0217 615.0
70.0886 658.0
70.1554 646.0
70.2222 662.0
70.2891 665.0
70.3559 644.0
70.4228 707.0
70.4896 762.0
70.5565 707.0
70.6233 703.0
70.6902 710.0
70.757 689.0
70.8239 727.0
70.8907 722.0
70.9575 751.0
71.0244 735.0
71.0912 666.0
71.1581 665.0
71.2249 662.0
71.2918 700.0
71.3586 583.0
71.4255 597.0
71.4923 488.0
71.5592 503.0
71.626 472.0
71.6928 448.0
71.7597 420.0
71.8265 483.0
71.8934 458.0
71.9602 501.0
72.0271 579.0
72.0939 537.0
72.1608 576.0
72.2276 559.0
72.2944 556.0
72.3613 553.0
72.4281 507.0
72.495 513.0
72.5618 469.0
72.6287 419.0
72.6955 475.0
72.7624 480.0
72.8292 441.0
72.8961 439.0
72.9629 391.0
73.0297 383.0
73.0966 385.0
73.1634 376.0
73.2303 342.0
73.2971 353.0
73.364 363.0
73.4308 369.0
73.4977 362.0
73.5645 389.0
73.6313 415.0
73.6982 422.0
73.765 436.0
73.8319 412.0
73.8987 462.0
73.9656 432.0
74.0324 438.0
74.0993 434.0
74.1661 377.0
74.233 363.0
74.2998 398.0
74.3666 386.0
74.4335 416.0
74.5003 415.0
74.5672 365.0
74.634 409.0
74.7009 378.0
74.7677 410.0
74.8346 396.0
74.9014 456.0
74.9683 481.0
75.0351 476.0
75.1019 508.0
75.1688 494.0
75.2356 497.0
75.3025 503.0
75.3693 464.0
75.4362 454.0
75.503 389.0
75.5699 430.0
75.6367 417.0
75.7035 406.0
75.7704 356.0
75.8372 369.0
75.9041 389.0
75.9709 411.0
76.0378 381.0
76.1046 453.0
76.1715 406.0
76.2383 397.0
76.3052 384.0
76.372 385.0
76.4388 354.0
76.5057 329.0
76.5725 305.0
76.6394 347.0
76.7062 344.0
76.7731 371.0
76.8399 370.0
76.9068 387.0
76.9736 396.0
77.0404 380.0
77.1073 362.0
77.1741 382.0
77.241 395.0
77.3078 366.0
77.3747 384.0
77.4415 362.0
77.5084 369.0
77.5752 364.0
77.6421 356.0
77.7089 378.0
77.7757 361.0
77.8426 399.0
77.9094 373.0
77.9763 423.0
78.0431 376.0
78.11 369.0
78.1768 357.0
78.2437 329.0
78.3105 337.0
78.3773 331.0
78.4442 315.0
78.511 326.0
78.5779 347.0
78.6447 333.0
78.7116 321.0
78.7784 302.0
78.8453 314.0
78.9121 331.0
78.979 373.0
79.0458 300.0
79.1126 389.0
79.1795 341.0
79.2463 362.0
79.3132 342.0
79.38 373.0
79.4469 354.0
79.5137 384.0
79.5806 370.0
79.6474 364.0
79.7143 375.0
79.7811 367.0
79.8479 347.0
79.9148 383.0
79.9816 352.0
80.0485 372.0
80.1153 342.0
80.1822 344.0
80.249 332.0
80.3159 356.0
80.3827 363.0
80.4495 420.0
80.5164 414.0
80.5832 451.0
80.6501 463.0
80.7169 417.0
80.7838 444.0
80.8506 415.0
80.9175 423.0
80.9843 436.0
81.0512 348.0
81.118 341.0
81.1848 353.0
81.2517 314.0
81.3185 310.0
81.3854 338.0
81.4522 337.0
81.5191 321.0
81.5859 332.0
81.6528 376.0
81.7196 354.0
81.7864 354.0
81.8533 314.0
81.9201 344.0
81.987 308.0
82.0538 292.0
82.1207 325.0
82.1875 319.0
82.2544 323.0
82.3212 350.0
82.3881 298.0
82.4549 336.0
82.5217 316.0
82.5886 307.0
82.6554 349.0
82.7223 356.0
82.7891 328.0
82.856 333.0
82.9228 330.0
82.9897 320.0
83.0565 315.0
83.1233 337.0
83.1902 319.0
83.257 322.0
83.3239 311.0
83.3907 310.0
83.4576 325.0
83.5244 293.0
83.5913 293.0
83.6581 322.0
83.725 326.0
83.7918 332.0
83.8586 383.0
83.9255 382.0
83.9923 321.0
84.0592 339.0
84.126 328.0
84.1929 304.0
84.2597 315.0
84.3266 315.0
84.3934 300.0
84.4603 309.0
84.5271 310.0
84.5939 272.0
84.6608 299.0
84.7276 282.0
84.7945 297.0
84.8613 289.0
84.9282 279.0
84.995 277.0
85.0619 256.0
85.1287 266.0
85.1955 277.0
85.2624 298.0
85.3292 268.0
85.3961 288.0
85.4629 277.0
85.5298 251.0
85.5966 259.0
85.6635 256.0
85.7303 273.0
85.7972 239.0
85.864 263.0
85.9308 230.0
85.9977 251.0
86.0645 236.0
86.1314 255.0
86.1982 284.0
86.2651 280.0
86.3319 266.0
86.3988 275.0
86.4656 276.0
86.5324 237.0
86.5993 267.0
86.6661 260.0
86.733 277.0
86.7998 280.0
86.8667 264.0
86.9335 319.0
87.0004 275.0
87.0672 280.0
87.1341 269.0
87.2009 310.0
87.2677 273.0
87.3346 315.0
87.4014 274.0
87.4683 276.0
87.5351 262.0
87.602 247.0
87.6688 253.0
87.7357 250.0
87.8025 264.0
87.8693 250.0
87.9362 276.0
88.003 261.0
88.0699 267.0
88.1367 273.0
88.2036 285.0
88.2704 280.0
88.3373 282.0
88.4041 261.0
88.471 258.0
88.5378 248.0
88.6046 270.0
88.6715 257.0
88.7383 276.0
88.8052 247.0
88.872 250.0
88.9389 232.0
89.0057 243.0
89.0726 221.0
89.1394 258.0
89.2063 221.0
89.2731 199.0
89.3399 225.0
89.4068 191.0
89.4736 221.0
89.5405 225.0
89.6073 222.0
89.6742 248.0
89.741 247.0
89.8079 221.0
89.8747 227.0
89.9415 241.0