File: code/XRD_Analysis/External Sources/Alex_SAPO/20220704_SAPO-34_80_220627_calc650C20h.xy
4.98146 1425.0
5.0483 1400.0
5.11515 1392.0
5.18199 1376.0
5.24884 1425.0
5.31568 1301.0
5.38253 1334.0
5.44937 1262.0
5.51622 1250.0
5.58306 1254.0
5.64991 1230.0
5.71675 1231.0
5.7836 1183.0
5.85044 1199.0
5.91729 1158.0
5.98413 1145.0
6.05098 1147.0
6.11782 1189.0
6.18467 1157.0
6.25151 1126.0
6.31836 1140.0
6.3852 1066.0
6.45205 1128.0
6.51889 1066.0
6.58574 1104.0
6.65258 1115.0
6.71943 1033.0
6.78627 1045.0
6.85312 996.0
6.91996 985.0
6.98681 1020.0
7.05365 1034.0
7.1205 989.0
7.18734 942.0
7.25419 959.0
7.32103 957.0
7.38788 959.0
7.45472 977.0
7.52157 945.0
7.58841 948.0
7.65526 951.0
7.7221 955.0
7.78895 906.0
7.85579 906.0
7.92264 867.0
7.98948 896.0
8.05633 850.0
8.12317 851.0
8.19002 930.0
8.25686 875.0
8.32371 865.0
8.39055 876.0
8.4574 902.0
8.52424 973.0
8.59109 1169.0
8.65793 1009.0
8.72478 977.0
8.79162 837.0
8.85847 862.0
8.92532 783.0
8.99216 816.0
9.05901 841.0
9.12585 818.0
9.1927 882.0
9.25954 898.0
9.32639 1090.0
9.39323 1419.0
9.46008 3087.0
9.52692 7821.0
9.59377 13309.0
9.66061 3974.0
9.72746 1411.0
9.7943 1041.0
9.86115 1016.0
9.92799 958.0
9.99484 850.0
10.0617 859.0
10.1285 877.0
10.1954 856.0
10.2622 832.0
10.3291 819.0
10.3959 801.0
10.4628 744.0
10.5296 800.0
10.5964 782.0
10.6633 808.0
10.7301 745.0
10.797 802.0
10.8638 812.0
10.9307 759.0
10.9975 748.0
11.0644 797.0
11.1312 743.0
11.198 775.0
11.2649 799.0
11.3317 766.0
11.3986 791.0
11.4654 768.0
11.5323 771.0
11.5991 779.0
11.666 738.0
11.7328 746.0
11.7997 703.0
11.8665 763.0
11.9333 764.0
12.0002 695.0
12.067 785.0
12.1339 743.0
12.2007 740.0
12.2676 771.0
12.3344 779.0
12.4013 794.0
12.4681 773.0
12.5349 764.0
12.6018 767.0
12.6686 740.0
12.7355 748.0
12.8023 844.0
12.8692 1025.0
12.936 1963.0
13.0029 3629.0
13.0697 2475.0
13.1366 1121.0
13.2034 922.0
13.2702 893.0
13.3371 835.0
13.4039 871.0
13.4708 864.0
13.5376 838.0
13.6045 728.0
13.6713 727.0
13.7382 644.0
13.805 632.0
13.8719 629.0
13.9387 700.0
14.0055 748.0
14.0724 813.0
14.1392 701.0
14.2061 682.0
14.2729 626.0
14.3398 639.0
14.4066 637.0
14.4735 639.0
14.5403 609.0
14.6071 657.0
14.674 649.0
14.7408 677.0
14.8077 646.0
14.8745 652.0
14.9414 669.0
15.0082 609.0
15.0751 629.0
15.1419 666.0
15.2088 641.0
15.2756 623.0
15.3424 665.0
15.4093 610.0
15.4761 635.0
15.543 620.0
15.6098 645.0
15.6767 663.0
15.7435 669.0
15.8104 665.0
15.8772 646.0
15.944 697.0
16.0109 799.0
16.0777 1261.0
16.1446 2504.0
16.2114 2914.0
16.2783 1403.0
16.3451 826.0
16.412 794.0
16.4788 770.0
16.5457 769.0
16.6125 799.0
16.6793 813.0
16.7462 823.0
16.813 900.0
16.8799 919.0
16.9467 884.0
17.0136 886.0
17.0804 881.0
17.1473 962.0
17.2141 881.0
17.2809 933.0
17.3478 865.0
17.4146 934.0
17.4815 856.0
17.5483 914.0
17.6152 920.0
17.682 975.0
17.7489 981.0
17.8157 1197.0
17.8826 1434.0
17.9494 1454.0
18.0162 1060.0
18.0831 942.0
18.1499 854.0
18.2168 740.0
18.2836 774.0
18.3505 807.0
18.4173 829.0
18.4842 785.0
18.551 769.0
18.6179 738.0
18.6847 808.0
18.7515 748.0
18.8184 746.0
18.8852 762.0
18.9521 802.0
19.0189 834.0
19.0858 830.0
19.1526 1262.0
19.2195 1306.0
19.2863 1162.0
19.3531 845.0
19.42 760.0
19.4868 706.0
19.5537 773.0
19.6205 782.0
19.6874 815.0
19.7542 783.0
19.8211 824.0
19.8879 803.0
19.9548 861.0
20.0216 866.0
20.0884 882.0
20.1553 939.0
20.2221 965.0
20.289 974.0
20.3558 971.0
20.4227 997.0
20.4895 1106.0
20.5564 1172.0
20.6232 1288.0
20.69 2030.0
20.7569 3973.0
20.8237 5270.0
20.8906 3609.0
20.9574 1952.0
21.0243 1463.0
21.0911 1370.0
21.158 1312.0
21.2248 1365.0
21.2917 1269.0
21.3585 1305.0
21.4253 1401.0
21.4922 1266.0
21.559 1219.0
21.6259 1069.0
21.6927 945.0
21.7596 929.0
21.8264 887.0
21.8933 883.0
21.9601 859.0
22.0269 880.0
22.0938 988.0
22.1606 1000.0
22.2275 1019.0
22.2943 976.0
22.3612 926.0
22.428 942.0
22.4949 942.0
22.5617 940.0
22.6286 958.0
22.6954 993.0
22.7622 970.0
22.8291 946.0
22.8959 943.0
22.9628 971.0
23.0296 1025.0
23.0965 1048.0
23.1633 1196.0
23.2302 1575.0
23.297 1935.0
23.3639 1563.0
23.4307 1207.0
23.4975 1116.0
23.5644 1064.0
23.6312 1104.0
23.6981 1041.0
23.7649 1058.0
23.8318 1056.0
23.8986 1035.0
23.9655 1178.0
24.0323 1166.0
24.0991 1123.0
24.166 1160.0
24.2328 1168.0
24.2997 1121.0
24.3665 1192.0
24.4334 1221.0
24.5002 1193.0
24.5671 1238.0
24.6339 1212.0
24.7008 1318.0
24.7676 1196.0
24.8344 1313.0
24.9013 1344.0
24.9681 1482.0
25.035 1787.0
25.1018 2012.0
25.1687 2019.0
25.2355 1782.0
25.3024 1518.0
25.3692 1375.0
25.436 1372.0
25.5029 1412.0
25.5697 1373.0
25.6366 1348.0
25.7034 1292.0
25.7703 1357.0
25.8371 1321.0
25.904 1370.0
25.9708 1401.0
26.0377 1576.0
26.1045 2304.0
26.1713 2846.0
26.2382 2722.0
26.305 2006.0
26.3719 1564.0
26.4387 1407.0
26.5056 1353.0
26.5724 1272.0
26.6393 1228.0
26.7061 1299.0
26.773 1272.0
26.8398 1237.0
26.9066 1216.0
26.9735 1198.0
27.0403 1265.0
27.1072 1156.0
27.174 1274.0
27.2409 1200.0
27.3077 1149.0
27.3746 1144.0
27.4414 1135.0
27.5082 1121.0
27.5751 1087.0
27.6419 1105.0
27.7088 1126.0
27.7756 1205.0
27.8425 1324.0
27.9093 1454.0
27.9762 1453.0
28.043 1400.0
28.1099 1273.0
28.1767 1319.0
28.2435 1371.0
28.3104 1525.0
28.3772 1546.0
28.4441 1461.0
28.5109 1362.0
28.5778 1285.0
28.6446 1230.0
28.7115 1193.0
28.7783 1148.0
28.8451 1222.0
28.912 1254.0
28.9788 1225.0
29.0457 1196.0
29.1125 1167.0
29.1794 1221.0
29.2462 1222.0
29.3131 1163.0
29.3799 1189.0
29.4468 1238.0
29.5136 1302.0
29.5804 1236.0
29.6473 1232.0
29.7141 1383.0
29.781 1430.0
29.8478 1583.0
29.9147 1563.0
29.9815 1407.0
30.0484 1423.0
30.1152 1401.0
30.182 1447.0
30.2489 1580.0
30.3157 1595.0
30.3826 1619.0
30.4494 1719.0
30.5163 1846.0
30.5831 1963.0
30.65 2093.0
30.7168 2220.0
30.7837 2423.0
30.8505 2939.0
30.9173 3705.0
30.9842 3941.0
31.051 3618.0
31.1179 2939.0
31.1847 2962.0
31.2516 3083.0
31.3184 3255.0
31.3853 3089.0
31.4521 2550.0
31.519 2062.0
31.5858 1835.0
31.6526 1649.0
31.7195 1541.0
31.7863 1478.0
31.8532 1520.0
31.92 1630.0
31.9869 1509.0
32.0537 1434.0
32.1206 1301.0
32.1874 1283.0
32.2542 1285.0
32.3211 1181.0
32.3879 1194.0
32.4548 1172.0
32.5216 1169.0
32.5885 1189.0
32.6553 1151.0
32.7222 1238.0
32.789 1153.0
32.8559 1047.0
32.9227 995.0
32.9895 1006.0
33.0564 1005.0
33.1232 1004.0
33.1901 1023.0
33.2569 1034.0
33.3238 976.0
33.3906 1002.0
33.4575 992.0
33.5243 1054.0
33.5911 1053.0
33.658 982.0
33.7248 1117.0
33.7917 1091.0
33.8585 1058.0
33.9254 987.0
33.9922 953.0
34.0591 939.0
34.1259 938.0
34.1928 928.0
34.2596 907.0
34.3264 925.0
34.3933 863.0
34.4601 914.0
34.527 865.0
34.5938 907.0
34.6607 969.0
34.7275 943.0
34.7944 1053.0
34.8612 1098.0
34.928 1087.0
34.9949 1079.0
35.0617 990.0
35.1286 914.0
35.1954 854.0
35.2623 901.0
35.3291 914.0
35.396 877.0
35.4628 875.0
35.5297 788.0
35.5965 829.0
35.6633 743.0
35.7302 840.0
35.797 816.0
35.8639 781.0
35.9307 770.0
35.9976 740.0
36.0644 785.0
36.1313 799.0
36.1981 846.0
36.265 813.0
36.3318 902.0
36.3986 859.0
36.4655 761.0
36.5323 719.0
36.5992 786.0
36.666 689.0
36.7329 706.0
36.7997 677.0
36.8666 674.0
36.9334 633.0
37.0002 659.0
37.0671 669.0
37.1339 651.0
37.2008 694.0
37.2676 661.0
37.3345 667.0
37.4013 651.0
37.4682 666.0
37.535 582.0
37.6019 672.0
37.6687 612.0
37.7355 620.0
37.8024 623.0
37.8692 587.0
37.9361 633.0
38.0029 628.0
38.0698 665.0
38.1366 612.0
38.2035 643.0
38.2703 669.0
38.3371 656.0
38.404 584.0
38.4708 716.0
38.5377 670.0
38.6045 646.0
38.6714 648.0
38.7382 629.0
38.8051 600.0
38.8719 612.0
38.9388 615.0
39.0056 673.0
39.0724 628.0
39.1393 694.0
39.2061 626.0
39.273 616.0
39.3398 633.0
39.4067 661.0
39.4735 683.0
39.5404 719.0
39.6072 670.0
39.6741 677.0
39.7409 700.0
39.8077 633.0
39.8746 679.0
39.9414 700.0
40.0083 696.0
40.0751 760.0
40.142 730.0
40.2088 699.0
40.2757 725.0
40.3425 683.0
40.4093 696.0
40.4762 639.0
40.543 649.0
40.6099 625.0
40.6767 644.0
40.7436 626.0
40.8104 651.0
40.8773 632.0
40.9441 628.0
41.011 614.0
41.0778 614.0
41.1446 599.0
41.2115 665.0
41.2783 673.0
41.3452 674.0
41.412 616.0
41.4789 620.0
41.5457 642.0
41.6126 642.0
41.6794 599.0
41.7462 629.0
41.8131 619.0
41.8799 620.0
41.9468 663.0
42.0136 607.0
42.0805 585.0
42.1473 639.0
42.2142 629.0
42.281 666.0
42.3479 652.0
42.4147 681.0
42.4815 628.0
42.5484 637.0
42.6152 595.0
42.6821 572.0
42.7489 609.0
42.8158 604.0
42.8826 626.0
42.9495 649.0
43.0163 649.0
43.0831 686.0
43.15 627.0
43.2168 703.0
43.2837 678.0
43.3505 651.0
43.4174 711.0
43.4842 696.0
43.5511 692.0
43.6179 727.0
43.6848 699.0
43.7516 725.0
43.8184 670.0
43.8853 701.0
43.9521 710.0
44.019 623.0
44.0858 643.0
44.1527 620.0
44.2195 663.0
44.2864 596.0
44.3532 596.0
44.4201 675.0
44.4869 661.0
44.5537 597.0
44.6206 644.0
44.6874 632.0
44.7543 611.0
44.8211 621.0
44.888 635.0
44.9548 615.0
45.0217 600.0
45.0885 552.0
45.1553 592.0
45.2222 604.0
45.289 618.0
45.3559 615.0
45.4227 586.0
45.4896 589.0
45.5564 607.0
45.6233 553.0
45.6901 566.0
45.757 598.0
45.8238 578.0
45.8906 566.0
45.9575 582.0
46.0243 582.0
46.0912 621.0
46.158 567.0
46.2249 641.0
46.2917 594.0
46.3586 563.0
46.4254 567.0
46.4922 576.0
46.5591 558.0
46.6259 598.0
46.6928 582.0
46.7596 596.0
46.8265 575.0
46.8933 598.0
46.9602 601.0
47.027 604.0
47.0939 609.0
47.1607 586.0
47.2275 578.0
47.2944 602.0
47.3612 601.0
47.4281 595.0
47.4949 602.0
47.5618 648.0
47.6286 591.0
47.6955 603.0
47.7623 550.0
47.8291 567.0
47.896 587.0
47.9628 571.0
48.0297 576.0
48.0965 622.0
48.1634 667.0
48.2302 658.0
48.2971 631.0
48.3639 619.0
48.4308 636.0
48.4976 611.0
48.5644 579.0
48.6313 580.0
48.6981 591.0
48.765 620.0
48.8318 613.0
48.8987 613.0
48.9655 605.0
49.0324 621.0
49.0992 673.0
49.1661 710.0
49.2329 732.0
49.2997 869.0
49.3666 798.0
49.4334 878.0
49.5003 791.0
49.5671 755.0
49.634 680.0
49.7008 685.0
49.7677 621.0
49.8345 634.0
49.9013 641.0
49.9682 649.0
50.035 657.0
50.1019 652.0
50.1687 666.0
50.2356 605.0
50.3024 657.0
50.3693 638.0
50.4361 645.0
50.503 657.0
50.5698 648.0
50.6366 690.0
50.7035 650.0
50.7703 644.0
50.8372 591.0
50.904 684.0
50.9709 665.0
51.0377 651.0
51.1046 724.0
51.1714 708.0
51.2382 774.0
51.3051 770.0
51.3719 737.0
51.4388 659.0
51.5056 643.0
51.5725 649.0
51.6393 667.0
51.7062 601.0
51.773 604.0
51.8399 626.0
51.9067 610.0
51.9735 596.0
52.0404 614.0
52.1072 618.0
52.1741 594.0
52.2409 588.0
52.3078 553.0
52.3746 620.0
52.4415 586.0
52.5083 646.0
52.5751 602.0
52.642 559.0
52.7088 565.0
52.7757 597.0
52.8425 565.0
52.9094 591.0
52.9762 569.0
53.0431 573.0
53.1099 555.0
53.1768 623.0
53.2436 584.0
53.3104 550.0
53.3773 614.0
53.4441 626.0
53.511 623.0
53.5778 569.0
53.6447 652.0
53.7115 639.0
53.7784 658.0
53.8452 633.0
53.9121 669.0
53.9789 660.0
54.0457 656.0
54.1126 618.0
54.1794 612.0
54.2463 596.0
54.3131 616.0
54.38 586.0
54.4468 568.0
54.5137 583.0
54.5805 574.0
54.6473 585.0
54.7142 570.0
54.781 613.0
54.8479 565.0
54.9147 620.0
54.9816 596.0
55.0484 607.0
55.1153 597.0
55.1821 557.0
55.249 561.0
55.3158 578.0
55.3826 578.0
55.4495 556.0
55.5163 578.0
55.5832 612.0
55.65 573.0
55.7169 637.0
55.7837 635.0
55.8506 584.0
55.9174 597.0
55.9842 618.0
56.0511 612.0
56.1179 548.0
56.1848 565.0
56.2516 585.0
56.3185 580.0
56.3853 602.0
56.4522 626.0
56.519 574.0
56.5859 597.0
56.6527 615.0
56.7195 652.0
56.7864 581.0
56.8532 626.0
56.9201 629.0
56.9869 564.0
57.0538 532.0
57.1206 551.0
57.1875 569.0
57.2543 603.0
57.3212 522.0
57.388 547.0
57.4548 510.0
57.5217 536.0
57.5885 556.0
57.6554 534.0
57.7222 532.0
57.7891 597.0
57.8559 539.0
57.9228 524.0
57.9896 480.0
58.0564 506.0
58.1233 566.0
58.1901 538.0
58.257 541.0
58.3238 490.0
58.3907 508.0
58.4575 524.0
58.5244 502.0
58.5912 516.0
58.6581 509.0
58.7249 489.0
58.7917 532.0
58.8586 511.0
58.9254 469.0
58.9923 532.0
59.0591 523.0
59.126 523.0
59.1928 519.0
59.2597 531.0
59.3265 550.0
59.3933 548.0
59.4602 519.0
59.527 554.0
59.5939 519.0
59.6607 557.0
59.7276 486.0
59.7944 503.0
59.8613 565.0
59.9281 536.0
59.995 542.0
60.0618 547.0
60.1286 632.0
60.1955 551.0
60.2623 573.0
60.3292 573.0
60.396 540.0
60.4629 542.0
60.5297 540.0
60.5966 526.0
60.6634 504.0
60.7302 520.0
60.7971 472.0
60.8639 461.0
60.9308 517.0
60.9976 511.0
61.0645 519.0
61.1313 476.0
61.1982 529.0
61.265 522.0
61.3319 510.0
61.3987 532.0
61.4655 505.0
61.5324 497.0
61.5992 527.0
61.6661 576.0
61.7329 547.0
61.7998 527.0
61.8666 548.0
61.9335 626.0
62.0003 541.0
62.0672 543.0
62.134 560.0
62.2008 540.0
62.2677 512.0
62.3345 527.0
62.4014 464.0
62.4682 516.0
62.5351 524.0
62.6019 544.0
62.6688 509.0
62.7356 490.0
62.8024 542.0
62.8693 526.0
62.9361 482.0
63.003 483.0
63.0698 529.0
63.1367 479.0
63.2035 526.0
63.2704 516.0
63.3372 505.0
63.4041 543.0
63.4709 534.0
63.5377 576.0
63.6046 503.0
63.6714 536.0
63.7383 507.0
63.8051 520.0
63.872 518.0
63.9388 518.0
64.0057 520.0
64.0725 472.0
64.1393 524.0
64.2062 533.0
64.273 527.0
64.3399 492.0
64.4067 477.0
64.4736 506.0
64.5404 472.0
64.6073 548.0
64.6741 475.0
64.741 509.0
64.8078 497.0
64.8746 529.0
64.9415 463.0
65.0083 475.0
65.0752 526.0
65.142 532.0
65.2089 500.0
65.2757 538.0
65.3426 523.0
65.4094 507.0
65.4762 521.0
65.5431 495.0
65.6099 504.0
65.6768 560.0
65.7436 529.0
65.8105 521.0
65.8773 529.0
65.9442 539.0
66.011 493.0
66.0779 510.0
66.1447 544.0
66.2115 524.0
66.2784 495.0
66.3452 500.0
66.4121 533.0
66.4789 520.0
66.5458 537.0
66.6126 531.0
66.6795 536.0
66.7463 555.0
66.8132 543.0
66.88 564.0
66.9468 576.0
67.0137 579.0
67.0805 571.0
67.1474 526.0
67.2142 551.0
67.2811 616.0
67.3479 554.0
67.4148 573.0
67.4816 531.0
67.5484 493.0
67.6153 523.0
67.6821 521.0
67.749 522.0
67.8158 539.0
67.8827 548.0
67.9495 500.0
68.0164 518.0
68.0832 526.0
68.1501 472.0
68.2169 512.0
68.2837 512.0
68.3506 542.0
68.4174 513.0
68.4843 553.0
68.5511 493.0
68.618 473.0
68.6848 506.0
68.7517 469.0
68.8185 411.0
68.8853 496.0
68.9522 476.0
69.019 466.0
69.0859 516.0
69.1527 464.0
69.2196 510.0
69.2864 466.0
69.3533 498.0
69.4201 441.0
69.487 495.0
69.5538 464.0
69.6206 491.0
69.6875 470.0
69.7543 485.0
69.8212 511.0
69.888 512.0
69.9549 469.0
70.0217 477.0
70.0886 576.0
70.1554 483.0
70.2222 486.0
70.2891 489.0
70.3559 511.0
70.4228 525.0
70.4896 516.0
70.5565 481.0
70.6233 498.0
70.6902 491.0
70.757 538.0
70.8239 517.0
70.8907 486.0
70.9575 474.0
71.0244 478.0
71.0912 476.0
71.1581 479.0
71.2249 440.0
71.2918 514.0
71.3586 456.0
71.4255 481.0
71.4923 460.0
71.5592 491.0
71.626 504.0
71.6928 482.0
71.7597 491.0
71.8265 526.0
71.8934 483.0
71.9602 466.0
72.0271 447.0
72.0939 467.0
72.1608 480.0
72.2276 467.0
72.2944 469.0
72.3613 470.0
72.4281 426.0
72.495 467.0
72.5618 476.0
72.6287 458.0
72.6955 481.0
72.7624 443.0
72.8292 461.0
72.8961 429.0
72.9629 418.0
73.0297 457.0
73.0966 478.0
73.1634 459.0
73.2303 449.0
73.2971 434.0
73.364 456.0
73.4308 471.0
73.4977 441.0
73.5645 464.0
73.6313 429.0
73.6982 475.0
73.765 428.0
73.8319 461.0
73.8987 408.0
73.9656 420.0
74.0324 453.0
74.0993 455.0
74.1661 392.0
74.233 433.0
74.2998 450.0
74.3666 420.0
74.4335 487.0
74.5003 407.0
74.5672 412.0
74.634 403.0
74.7009 439.0
74.7677 409.0
74.8346 428.0
74.9014 486.0
74.9683 445.0
75.0351 433.0
75.1019 425.0
75.1688 445.0
75.2356 450.0
75.3025 464.0
75.3693 436.0
75.4362 384.0
75.503 420.0
75.5699 407.0
75.6367 429.0
75.7035 420.0
75.7704 419.0
75.8372 398.0
75.9041 410.0
75.9709 417.0
76.0378 431.0
76.1046 404.0
76.1715 415.0
76.2383 411.0
76.3052 397.0
76.372 430.0
76.4388 403.0
76.5057 416.0
76.5725 410.0
76.6394 431.0
76.7062 391.0
76.7731 436.0
76.8399 414.0
76.9068 401.0
76.9736 383.0
77.0404 429.0
77.1073 407.0
77.1741 395.0
77.241 417.0
77.3078 393.0
77.3747 435.0
77.4415 407.0
77.5084 415.0
77.5752 383.0
77.6421 372.0
77.7089 400.0
77.7757 426.0
77.8426 370.0
77.9094 373.0
77.9763 394.0
78.0431 372.0
78.11 394.0
78.1768 388.0
78.2437 379.0
78.3105 404.0
78.3773 395.0
78.4442 403.0
78.511 372.0
78.5779 379.0
78.6447 378.0
78.7116 377.0
78.7784 389.0
78.8453 424.0
78.9121 380.0
78.979 394.0
79.0458 384.0
79.1126 392.0
79.1795 341.0
79.2463 399.0
79.3132 348.0
79.38 372.0
79.4469 352.0
79.5137 396.0
79.5806 346.0
79.6474 346.0
79.7143 350.0
79.7811 339.0
79.8479 375.0
79.9148 346.0
79.9816 348.0
80.0485 332.0
80.1153 320.0
80.1822 354.0
80.249 362.0
80.3159 340.0
80.3827 365.0
80.4495 349.0
80.5164 356.0
80.5832 381.0
80.6501 344.0
80.7169 338.0
80.7838 342.0
80.8506 340.0
80.9175 347.0
80.9843 323.0
81.0512 335.0
81.118 354.0
81.1848 346.0
81.2517 384.0
81.3185 347.0
81.3854 333.0
81.4522 355.0
81.5191 338.0
81.5859 369.0
81.6528 354.0
81.7196 311.0
81.7864 321.0
81.8533 329.0
81.9201 338.0
81.987 319.0
82.0538 325.0
82.1207 330.0
82.1875 307.0
82.2544 333.0
82.3212 311.0
82.3881 318.0
82.4549 329.0
82.5217 302.0
82.5886 330.0
82.6554 339.0
82.7223 342.0
82.7891 322.0
82.856 307.0
82.9228 306.0
82.9897 307.0
83.0565 289.0
83.1233 305.0
83.1902 289.0
83.257 316.0
83.3239 308.0
83.3907 318.0
83.4576 300.0
83.5244 308.0
83.5913 301.0
83.6581 298.0
83.725 295.0
83.7918 293.0
83.8586 322.0
83.9255 332.0
83.9923 323.0
84.0592 299.0
84.126 261.0
84.1929 299.0
84.2597 264.0
84.3266 292.0
84.3934 293.0
84.4603 294.0
84.5271 297.0
84.5939 305.0
84.6608 304.0
84.7276 285.0
84.7945 348.0
84.8613 275.0
84.9282 283.0
84.995 274.0
85.0619 300.0
85.1287 286.0
85.1955 304.0
85.2624 276.0
85.3292 288.0
85.3961 277.0
85.4629 271.0
85.5298 275.0
85.5966 270.0
85.6635 274.0
85.7303 283.0
85.7972 275.0
85.864 295.0
85.9308 262.0
85.9977 255.0
86.0645 277.0
86.1314 240.0
86.1982 295.0
86.2651 253.0
86.3319 263.0
86.3988 298.0
86.4656 264.0
86.5324 270.0
86.5993 279.0
86.6661 258.0
86.733 288.0
86.7998 271.0
86.8667 277.0
86.9335 253.0
87.0004 257.0
87.0672 260.0
87.1341 248.0
87.2009 271.0
87.2677 273.0
87.3346 269.0
87.4014 246.0
87.4683 287.0
87.5351 256.0
87.602 279.0
87.6688 282.0
87.7357 279.0
87.8025 285.0
87.8693 248.0
87.9362 259.0
88.003 268.0
88.0699 253.0
88.1367 269.0
88.2036 271.0
88.2704 261.0
88.3373 259.0
88.4041 243.0
88.471 245.0
88.5378 240.0
88.6046 241.0
88.6715 255.0
88.7383 248.0
88.8052 290.0
88.872 247.0
88.9389 246.0
89.0057 256.0
89.0726 214.0
89.1394 264.0
89.2063 223.0
89.2731 236.0
89.3399 243.0
89.4068 224.0
89.4736 254.0
89.5405 276.0
89.6073 245.0
89.6742 268.0
89.741 248.0
89.8079 270.0
89.8747 229.0
89.9415 275.0