File: code/XRD_Analysis/External Sources/Alex_SAPO/20221013_SAPO-18_221010_2_calc550C.xy
4.98146 1578.0
5.0483 1583.0
5.11515 1512.0
5.18199 1443.0
5.24884 1422.0
5.31568 1442.0
5.38253 1429.0
5.44937 1388.0
5.51622 1377.0
5.58306 1296.0
5.64991 1348.0
5.71675 1289.0
5.7836 1250.0
5.85044 1244.0
5.91729 1267.0
5.98413 1219.0
6.05098 1208.0
6.11782 1194.0
6.18467 1252.0
6.25151 1167.0
6.31836 1157.0
6.3852 1182.0
6.45205 1175.0
6.51889 1102.0
6.58574 1142.0
6.65258 1087.0
6.71943 1072.0
6.78627 1095.0
6.85312 1056.0
6.91996 1121.0
6.98681 1066.0
7.05365 984.0
7.1205 1045.0
7.18734 1039.0
7.25419 1003.0
7.32103 1038.0
7.38788 972.0
7.45472 971.0
7.52157 951.0
7.58841 1002.0
7.65526 1026.0
7.7221 944.0
7.78895 974.0
7.85579 989.0
7.92264 972.0
7.98948 975.0
8.05633 975.0
8.12317 964.0
8.19002 949.0
8.25686 944.0
8.32371 1003.0
8.39055 954.0
8.4574 953.0
8.52424 966.0
8.59109 924.0
8.65793 942.0
8.72478 966.0
8.79162 939.0
8.85847 958.0
8.92532 1006.0
8.99216 1050.0
9.05901 1013.0
9.12585 1116.0
9.1927 1334.0
9.25954 1471.0
9.32639 2113.0
9.39323 3408.0
9.46008 6685.0
9.52692 11286.0
9.59377 10472.0
9.66061 6421.0
9.72746 3369.0
9.7943 1985.0
9.86115 1448.0
9.92799 1213.0
9.99484 1120.0
10.0617 1143.0
10.1285 1053.0
10.1954 1083.0
10.2622 1072.0
10.3291 1086.0
10.3959 1154.0
10.4628 1330.0
10.5296 1598.0
10.5964 2141.0
10.6633 2564.0
10.7301 2219.0
10.797 1728.0
10.8638 1339.0
10.9307 1145.0
10.9975 1038.0
11.0644 978.0
11.1312 883.0
11.198 883.0
11.2649 841.0
11.3317 861.0
11.3986 860.0
11.4654 795.0
11.5323 825.0
11.5991 761.0
11.666 768.0
11.7328 769.0
11.7997 778.0
11.8665 822.0
11.9333 828.0
12.0002 829.0
12.067 769.0
12.1339 759.0
12.2007 806.0
12.2676 705.0
12.3344 789.0
12.4013 785.0
12.4681 815.0
12.5349 797.0
12.6018 848.0
12.6686 894.0
12.7355 1007.0
12.8023 1281.0
12.8692 1917.0
12.936 2590.0
13.0029 2278.0
13.0697 1430.0
13.1366 1050.0
13.2034 903.0
13.2702 852.0
13.3371 934.0
13.4039 1004.0
13.4708 1263.0
13.5376 1406.0
13.6045 1322.0
13.6713 1069.0
13.7382 859.0
13.805 797.0
13.8719 789.0
13.9387 779.0
14.0055 895.0
14.0724 868.0
14.1392 807.0
14.2061 791.0
14.2729 721.0
14.3398 792.0
14.4066 754.0
14.4735 678.0
14.5403 766.0
14.6071 715.0
14.674 752.0
14.7408 766.0
14.8077 752.0
14.8745 787.0
14.9414 736.0
15.0082 721.0
15.0751 723.0
15.1419 724.0
15.2088 746.0
15.2756 774.0
15.3424 748.0
15.4093 748.0
15.4761 764.0
15.543 771.0
15.6098 798.0
15.6767 768.0
15.7435 810.0
15.8104 851.0
15.8772 937.0
15.944 1086.0
16.0109 1439.0
16.0777 2000.0
16.1446 2231.0
16.2114 1987.0
16.2783 1566.0
16.3451 1192.0
16.412 1013.0
16.4788 1055.0
16.5457 923.0
16.6125 993.0
16.6793 1055.0
16.7462 1178.0
16.813 1371.0
16.8799 2030.0
16.9467 2745.0
17.0136 3515.0
17.0804 3231.0
17.1473 2602.0
17.2141 2315.0
17.2809 2317.0
17.3478 2290.0
17.4146 1995.0
17.4815 1683.0
17.5483 1417.0
17.6152 1227.0
17.682 1081.0
17.7489 1027.0
17.8157 916.0
17.8826 947.0
17.9494 954.0
18.0162 868.0
18.0831 981.0
18.1499 876.0
18.2168 906.0
18.2836 875.0
18.3505 912.0
18.4173 872.0
18.4842 868.0
18.551 838.0
18.6179 901.0
18.6847 859.0
18.7515 856.0
18.8184 877.0
18.8852 931.0
18.9521 971.0
19.0189 1228.0
19.0858 1492.0
19.1526 1559.0
19.2195 1340.0
19.2863 1263.0
19.3531 1111.0
19.42 1067.0
19.4868 1057.0
19.5537 1055.0
19.6205 1208.0
19.6874 1386.0
19.7542 1413.0
19.8211 1370.0
19.8879 1316.0
19.9548 1359.0
20.0216 1569.0
20.0884 1800.0
20.1553 2022.0
20.2221 2294.0
20.289 2495.0
20.3558 2369.0
20.4227 2358.0
20.4895 2298.0
20.5564 2426.0
20.6232 3046.0
20.69 3509.0
20.7569 3242.0
20.8237 2738.0
20.8906 2133.0
20.9574 1963.0
21.0243 1906.0
21.0911 1942.0
21.158 2161.0
21.2248 2527.0
21.2917 3096.0
21.3585 3924.0
21.4253 4760.0
21.4922 4936.0
21.559 3935.0
21.6259 2752.0
21.6927 2122.0
21.7596 1844.0
21.8264 1593.0
21.8933 1532.0
21.9601 1610.0
22.0269 1605.0
22.0938 1516.0
22.1606 1535.0
22.2275 1461.0
22.2943 1482.0
22.3612 1520.0
22.428 1588.0
22.4949 1615.0
22.5617 1710.0
22.6286 1771.0
22.6954 1726.0
22.7622 1539.0
22.8291 1576.0
22.8959 1450.0
22.9628 1611.0
23.0296 1510.0
23.0965 1654.0
23.1633 1772.0
23.2302 1769.0
23.297 1637.0
23.3639 1496.0
23.4307 1456.0
23.4975 1423.0
23.5644 1416.0
23.6312 1488.0
23.6981 1552.0
23.7649 1745.0
23.8318 2059.0
23.8986 2523.0
23.9655 3074.0
24.0323 3305.0
24.0991 3162.0
24.166 2905.0
24.2328 2410.0
24.2997 1868.0
24.3665 1727.0
24.4334 1572.0
24.5002 1386.0
24.5671 1360.0
24.6339 1346.0
24.7008 1329.0
24.7676 1297.0
24.8344 1359.0
24.9013 1274.0
24.9681 1271.0
25.035 1302.0
25.1018 1363.0
25.1687 1429.0
25.2355 1336.0
25.3024 1490.0
25.3692 1480.0
25.436 1499.0
25.5029 1425.0
25.5697 1415.0
25.6366 1468.0
25.7034 1375.0
25.7703 1518.0
25.8371 1633.0
25.904 1792.0
25.9708 2091.0
26.0377 2245.0
26.1045 2157.0
26.1713 1968.0
26.2382 1885.0
26.305 1922.0
26.3719 2048.0
26.4387 2250.0
26.5056 2205.0
26.5724 1916.0
26.6393 1722.0
26.7061 1500.0
26.773 1396.0
26.8398 1418.0
26.9066 1396.0
26.9735 1318.0
27.0403 1381.0
27.1072 1427.0
27.174 1347.0
27.2409 1364.0
27.3077 1372.0
27.3746 1376.0
27.4414 1312.0
27.5082 1363.0
27.5751 1375.0
27.6419 1481.0
27.7088 1480.0
27.7756 1677.0
27.8425 1747.0
27.9093 1799.0
27.9762 1984.0
28.043 2046.0
28.1099 2018.0
28.1767 1929.0
28.2435 1822.0
28.3104 1766.0
28.3772 1591.0
28.4441 1497.0
28.5109 1371.0
28.5778 1349.0
28.6446 1384.0
28.7115 1356.0
28.7783 1341.0
28.8451 1344.0
28.912 1273.0
28.9788 1282.0
29.0457 1225.0
29.1125 1324.0
29.1794 1315.0
29.2462 1324.0
29.3131 1361.0
29.3799 1384.0
29.4468 1382.0
29.5136 1386.0
29.5804 1450.0
29.6473 1552.0
29.7141 1501.0
29.781 1563.0
29.8478 1546.0
29.9147 1546.0
29.9815 1682.0
30.0484 1806.0
30.1152 1931.0
30.182 1847.0
30.2489 1715.0
30.3157 1687.0
30.3826 1805.0
30.4494 1732.0
30.5163 1874.0
30.5831 1913.0
30.65 1942.0
30.7168 2038.0
30.7837 1992.0
30.8505 1937.0
30.9173 1888.0
30.9842 2114.0
31.051 2251.0
31.1179 2659.0
31.1847 3073.0
31.2516 3073.0
31.3184 2833.0
31.3853 2430.0
31.4521 2106.0
31.519 1763.0
31.5858 1664.0
31.6526 1533.0
31.7195 1506.0
31.7863 1507.0
31.8532 1654.0
31.92 1598.0
31.9869 1510.0
32.0537 1380.0
32.1206 1403.0
32.1874 1438.0
32.2542 1523.0
32.3211 1673.0
32.3879 1730.0
32.4548 1785.0
32.5216 1662.0
32.5885 1525.0
32.6553 1526.0
32.7222 1571.0
32.789 1474.0
32.8559 1456.0
32.9227 1557.0
32.9895 1625.0
33.0564 1525.0
33.1232 1408.0
33.1901 1337.0
33.2569 1271.0
33.3238 1226.0
33.3906 1109.0
33.4575 1142.0
33.5243 1063.0
33.5911 1086.0
33.658 1008.0
33.7248 937.0
33.7917 1022.0
33.8585 1052.0
33.9254 1002.0
33.9922 940.0
34.0591 883.0
34.1259 925.0
34.1928 889.0
34.2596 891.0
34.3264 869.0
34.3933 898.0
34.4601 926.0
34.527 958.0
34.5938 867.0
34.6607 851.0
34.7275 838.0
34.7944 848.0
34.8612 871.0
34.928 917.0
34.9949 903.0
35.0617 973.0
35.1286 926.0
35.1954 949.0
35.2623 978.0
35.3291 1049.0
35.396 1130.0
35.4628 1298.0
35.5297 1365.0
35.5965 1190.0
35.6633 1084.0
35.7302 976.0
35.797 866.0
35.8639 794.0
35.9307 855.0
35.9976 820.0
36.0644 855.0
36.1313 823.0
36.1981 832.0
36.265 840.0
36.3318 772.0
36.3986 804.0
36.4655 852.0
36.5323 825.0
36.5992 810.0
36.666 792.0
36.7329 782.0
36.7997 701.0
36.8666 707.0
36.9334 725.0
37.0002 699.0
37.0671 756.0
37.1339 685.0
37.2008 695.0
37.2676 703.0
37.3345 722.0
37.4013 731.0
37.4682 672.0
37.535 642.0
37.6019 648.0
37.6687 682.0
37.7355 645.0
37.8024 677.0
37.8692 605.0
37.9361 648.0
38.0029 707.0
38.0698 677.0
38.1366 704.0
38.2035 603.0
38.2703 664.0
38.3371 607.0
38.404 628.0
38.4708 637.0
38.5377 668.0
38.6045 591.0
38.6714 665.0
38.7382 632.0
38.8051 677.0
38.8719 658.0
38.9388 626.0
39.0056 679.0
39.0724 670.0
39.1393 679.0
39.2061 674.0
39.273 711.0
39.3398 673.0
39.4067 666.0
39.4735 638.0
39.5404 654.0
39.6072 626.0
39.6741 665.0
39.7409 642.0
39.8077 631.0
39.8746 627.0
39.9414 620.0
40.0083 642.0
40.0751 661.0
40.142 627.0
40.2088 615.0
40.2757 638.0
40.3425 649.0
40.4093 570.0
40.4762 628.0
40.543 581.0
40.6099 611.0
40.6767 622.0
40.7436 594.0
40.8104 595.0
40.8773 606.0
40.9441 631.0
41.011 626.0
41.0778 642.0
41.1446 607.0
41.2115 638.0
41.2783 638.0
41.3452 658.0
41.412 659.0
41.4789 657.0
41.5457 661.0
41.6126 691.0
41.6794 705.0
41.7462 682.0
41.8131 692.0
41.8799 675.0
41.9468 680.0
42.0136 659.0
42.0805 674.0
42.1473 622.0
42.2142 599.0
42.281 586.0
42.3479 652.0
42.4147 652.0
42.4815 612.0
42.5484 598.0
42.6152 661.0
42.6821 659.0
42.7489 628.0
42.8158 630.0
42.8826 643.0
42.9495 665.0
43.0163 670.0
43.0831 660.0
43.15 699.0
43.2168 669.0
43.2837 690.0
43.3505 711.0
43.4174 686.0
43.4842 699.0
43.5511 739.0
43.6179 694.0
43.6848 647.0
43.7516 651.0
43.8184 612.0
43.8853 667.0
43.9521 613.0
44.019 656.0
44.0858 609.0
44.1527 588.0
44.2195 574.0
44.2864 622.0
44.3532 591.0
44.4201 582.0
44.4869 537.0
44.5537 649.0
44.6206 604.0
44.6874 552.0
44.7543 604.0
44.8211 601.0
44.888 583.0
44.9548 552.0
45.0217 580.0
45.0885 582.0
45.1553 544.0
45.2222 614.0
45.289 590.0
45.3559 592.0
45.4227 578.0
45.4896 641.0
45.5564 528.0
45.6233 602.0
45.6901 568.0
45.757 603.0
45.8238 606.0
45.8906 558.0
45.9575 574.0
46.0243 513.0
46.0912 590.0
46.158 576.0
46.2249 539.0
46.2917 572.0
46.3586 517.0
46.4254 552.0
46.4922 589.0
46.5591 555.0
46.6259 579.0
46.6928 561.0
46.7596 572.0
46.8265 595.0
46.8933 556.0
46.9602 578.0
47.027 586.0
47.0939 556.0
47.1607 555.0
47.2275 569.0
47.2944 566.0
47.3612 587.0
47.4281 574.0
47.4949 568.0
47.5618 582.0
47.6286 544.0
47.6955 554.0
47.7623 578.0
47.8291 504.0
47.896 549.0
47.9628 558.0
48.0297 537.0
48.0965 535.0
48.1634 581.0
48.2302 566.0
48.2971 559.0
48.3639 522.0
48.4308 541.0
48.4976 570.0
48.5644 573.0
48.6313 534.0
48.6981 561.0
48.765 531.0
48.8318 565.0
48.8987 611.0
48.9655 597.0
49.0324 661.0
49.0992 644.0
49.1661 654.0
49.2329 691.0
49.2997 646.0
49.3666 659.0
49.4334 670.0
49.5003 701.0
49.5671 660.0
49.634 618.0
49.7008 630.0
49.7677 633.0
49.8345 625.0
49.9013 603.0
49.9682 544.0
50.035 592.0
50.1019 634.0
50.1687 588.0
50.2356 612.0
50.3024 611.0
50.3693 598.0
50.4361 605.0
50.503 644.0
50.5698 612.0
50.6366 626.0
50.7035 618.0
50.7703 632.0
50.8372 584.0
50.904 535.0
50.9709 638.0
51.0377 620.0
51.1046 600.0
51.1714 626.0
51.2382 588.0
51.3051 544.0
51.3719 573.0
51.4388 581.0
51.5056 622.0
51.5725 561.0
51.6393 532.0
51.7062 583.0
51.773 569.0
51.8399 594.0
51.9067 547.0
51.9735 554.0
52.0404 551.0
52.1072 518.0
52.1741 497.0
52.2409 516.0
52.3078 542.0
52.3746 607.0
52.4415 539.0
52.5083 543.0
52.5751 579.0
52.642 575.0
52.7088 548.0
52.7757 551.0
52.8425 553.0
52.9094 551.0
52.9762 523.0
53.0431 561.0
53.1099 542.0
53.1768 513.0
53.2436 534.0
53.3104 534.0
53.3773 526.0
53.4441 572.0
53.511 573.0
53.5778 558.0
53.6447 525.0
53.7115 544.0
53.7784 532.0
53.8452 580.0
53.9121 522.0
53.9789 527.0
54.0457 517.0
54.1126 524.0
54.1794 533.0
54.2463 545.0
54.3131 535.0
54.38 520.0
54.4468 475.0
54.5137 541.0
54.5805 566.0
54.6473 532.0
54.7142 522.0
54.781 510.0
54.8479 535.0
54.9147 495.0
54.9816 505.0
55.0484 531.0
55.1153 543.0
55.1821 519.0
55.249 559.0
55.3158 545.0
55.3826 575.0
55.4495 588.0
55.5163 605.0
55.5832 571.0
55.65 606.0
55.7169 597.0
55.7837 607.0
55.8506 628.0
55.9174 638.0
55.9842 661.0
56.0511 644.0
56.1179 582.0
56.1848 573.0
56.2516 605.0
56.3185 618.0
56.3853 582.0
56.4522 568.0
56.519 594.0
56.5859 552.0
56.6527 544.0
56.7195 519.0
56.7864 525.0
56.8532 550.0
56.9201 587.0
56.9869 541.0
57.0538 516.0
57.1206 472.0
57.1875 570.0
57.2543 474.0
57.3212 511.0
57.388 502.0
57.4548 510.0
57.5217 459.0
57.5885 474.0
57.6554 514.0
57.7222 488.0
57.7891 474.0
57.8559 511.0
57.9228 464.0
57.9896 511.0
58.0564 471.0
58.1233 448.0
58.1901 458.0
58.257 504.0
58.3238 470.0
58.3907 408.0
58.4575 476.0
58.5244 466.0
58.5912 459.0
58.6581 521.0
58.7249 480.0
58.7917 478.0
58.8586 501.0
58.9254 483.0
58.9923 523.0
59.0591 469.0
59.126 521.0
59.1928 474.0
59.2597 523.0
59.3265 488.0
59.3933 510.0
59.4602 454.0
59.527 504.0
59.5939 565.0
59.6607 538.0
59.7276 526.0
59.7944 497.0
59.8613 487.0
59.9281 532.0
59.995 488.0
60.0618 501.0
60.1286 494.0
60.1955 489.0
60.2623 494.0
60.3292 467.0
60.396 475.0
60.4629 498.0
60.5297 486.0
60.5966 477.0
60.6634 455.0
60.7302 519.0
60.7971 509.0
60.8639 466.0
60.9308 531.0
60.9976 481.0
61.0645 470.0
61.1313 451.0
61.1982 475.0
61.265 456.0
61.3319 487.0
61.3987 506.0
61.4655 459.0
61.5324 457.0
61.5992 450.0
61.6661 517.0
61.7329 453.0
61.7998 470.0
61.8666 483.0
61.9335 462.0
62.0003 442.0
62.0672 443.0
62.134 471.0
62.2008 493.0
62.2677 474.0
62.3345 463.0
62.4014 467.0
62.4682 459.0
62.5351 483.0
62.6019 462.0
62.6688 442.0
62.7356 464.0
62.8024 490.0
62.8693 466.0
62.9361 456.0
63.003 491.0
63.0698 450.0
63.1367 451.0
63.2035 514.0
63.2704 465.0
63.3372 502.0
63.4041 469.0
63.4709 459.0
63.5377 495.0
63.6046 500.0
63.6714 543.0
63.7383 514.0
63.8051 491.0
63.872 506.0
63.9388 545.0
64.0057 480.0
64.0725 521.0
64.1393 441.0
64.2062 513.0
64.273 471.0
64.3399 478.0
64.4067 465.0
64.4736 474.0
64.5404 435.0
64.6073 463.0
64.6741 470.0
64.741 512.0
64.8078 474.0
64.8746 459.0
64.9415 465.0
65.0083 472.0
65.0752 479.0
65.142 415.0
65.2089 449.0
65.2757 422.0
65.3426 423.0
65.4094 455.0
65.4762 454.0
65.5431 453.0
65.6099 413.0
65.6768 451.0
65.7436 460.0
65.8105 473.0
65.8773 481.0
65.9442 467.0
66.011 440.0
66.0779 467.0
66.1447 443.0
66.2115 436.0
66.2784 457.0
66.3452 433.0
66.4121 426.0
66.4789 423.0
66.5458 459.0
66.6126 479.0
66.6795 441.0
66.7463 431.0
66.8132 456.0
66.88 430.0
66.9468 469.0
67.0137 482.0
67.0805 458.0
67.1474 493.0
67.2142 455.0
67.2811 487.0
67.3479 477.0
67.4148 477.0
67.4816 458.0
67.5484 453.0
67.6153 497.0
67.6821 491.0
67.749 435.0
67.8158 473.0
67.8827 429.0
67.9495 423.0
68.0164 480.0
68.0832 419.0
68.1501 445.0
68.2169 444.0
68.2837 427.0
68.3506 459.0
68.4174 439.0
68.4843 424.0
68.5511 381.0
68.618 422.0
68.6848 449.0
68.7517 415.0
68.8185 416.0
68.8853 436.0
68.9522 441.0
69.019 415.0
69.0859 398.0
69.1527 404.0
69.2196 400.0
69.2864 415.0
69.3533 418.0
69.4201 432.0
69.487 398.0
69.5538 400.0
69.6206 442.0
69.6875 378.0
69.7543 398.0
69.8212 411.0
69.888 402.0
69.9549 367.0
70.0217 412.0
70.0886 442.0
70.1554 441.0
70.2222 397.0
70.2891 417.0
70.3559 411.0
70.4228 493.0
70.4896 464.0
70.5565 431.0
70.6233 397.0
70.6902 474.0
70.757 416.0
70.8239 440.0
70.8907 411.0
70.9575 412.0
71.0244 420.0
71.0912 424.0
71.1581 394.0
71.2249 449.0
71.2918 401.0
71.3586 398.0
71.4255 441.0
71.4923 395.0
71.5592 394.0
71.626 397.0
71.6928 429.0
71.7597 370.0
71.8265 387.0
71.8934 381.0
71.9602 402.0
72.0271 396.0
72.0939 434.0
72.1608 399.0
72.2276 408.0
72.2944 401.0
72.3613 419.0
72.4281 375.0
72.495 381.0
72.5618 367.0
72.6287 410.0
72.6955 389.0
72.7624 379.0
72.8292 392.0
72.8961 381.0
72.9629 377.0
73.0297 417.0
73.0966 379.0
73.1634 369.0
73.2303 411.0
73.2971 385.0
73.364 412.0
73.4308 412.0
73.4977 377.0
73.5645 372.0
73.6313 400.0
73.6982 395.0
73.765 383.0
73.8319 350.0
73.8987 388.0
73.9656 397.0
74.0324 376.0
74.0993 399.0
74.1661 386.0
74.233 417.0
74.2998 410.0
74.3666 370.0
74.4335 348.0
74.5003 349.0
74.5672 383.0
74.634 393.0
74.7009 361.0
74.7677 367.0
74.8346 388.0
74.9014 383.0
74.9683 379.0
75.0351 391.0
75.1019 378.0
75.1688 391.0
75.2356 377.0
75.3025 398.0
75.3693 338.0
75.4362 366.0
75.503 394.0
75.5699 387.0
75.6367 395.0
75.7035 380.0
75.7704 372.0
75.8372 408.0
75.9041 371.0
75.9709 394.0
76.0378 379.0
76.1046 340.0
76.1715 367.0
76.2383 397.0
76.3052 389.0
76.372 400.0
76.4388 366.0
76.5057 393.0
76.5725 372.0
76.6394 410.0
76.7062 387.0
76.7731 340.0
76.8399 404.0
76.9068 368.0
76.9736 336.0
77.0404 391.0
77.1073 345.0
77.1741 378.0
77.241 417.0
77.3078 360.0
77.3747 361.0
77.4415 342.0
77.5084 383.0
77.5752 364.0
77.6421 377.0
77.7089 393.0
77.7757 355.0
77.8426 358.0
77.9094 360.0
77.9763 350.0
78.0431 375.0
78.11 342.0
78.1768 344.0
78.2437 360.0
78.3105 382.0
78.3773 324.0
78.4442 371.0
78.511 330.0
78.5779 398.0
78.6447 375.0
78.7116 346.0
78.7784 370.0
78.8453 336.0
78.9121 371.0
78.979 388.0
79.0458 423.0
79.1126 397.0
79.1795 365.0
79.2463 360.0
79.3132 362.0
79.38 362.0
79.4469 357.0
79.5137 328.0
79.5806 383.0
79.6474 353.0
79.7143 324.0
79.7811 335.0
79.8479 353.0
79.9148 362.0
79.9816 347.0
80.0485 339.0
80.1153 336.0
80.1822 341.0
80.249 311.0
80.3159 331.0
80.3827 338.0
80.4495 317.0
80.5164 342.0
80.5832 339.0
80.6501 313.0
80.7169 338.0
80.7838 341.0
80.8506 341.0
80.9175 328.0
80.9843 334.0
81.0512 337.0
81.118 334.0
81.1848 326.0
81.2517 348.0
81.3185 337.0
81.3854 309.0
81.4522 310.0
81.5191 317.0
81.5859 348.0
81.6528 355.0
81.7196 301.0
81.7864 280.0
81.8533 314.0
81.9201 322.0
81.987 319.0
82.0538 282.0
82.1207 317.0
82.1875 298.0
82.2544 314.0
82.3212 323.0
82.3881 306.0
82.4549 293.0
82.5217 285.0
82.5886 334.0
82.6554 303.0
82.7223 273.0
82.7891 309.0
82.856 295.0
82.9228 285.0
82.9897 311.0
83.0565 289.0
83.1233 303.0
83.1902 261.0
83.257 282.0
83.3239 293.0
83.3907 317.0
83.4576 262.0
83.5244 290.0
83.5913 271.0
83.6581 295.0
83.725 285.0
83.7918 306.0
83.8586 285.0
83.9255 297.0
83.9923 289.0
84.0592 260.0
84.126 300.0
84.1929 285.0
84.2597 260.0
84.3266 271.0
84.3934 278.0
84.4603 261.0
84.5271 331.0
84.5939 288.0
84.6608 304.0
84.7276 283.0
84.7945 278.0
84.8613 287.0
84.9282 290.0
84.995 259.0
85.0619 300.0
85.1287 276.0
85.1955 277.0
85.2624 255.0
85.3292 283.0
85.3961 284.0
85.4629 271.0
85.5298 262.0
85.5966 246.0
85.6635 254.0
85.7303 266.0
85.7972 262.0
85.864 243.0
85.9308 251.0
85.9977 263.0
86.0645 262.0
86.1314 237.0
86.1982 247.0
86.2651 246.0
86.3319 262.0
86.3988 228.0
86.4656 248.0
86.5324 261.0
86.5993 250.0
86.6661 259.0
86.733 268.0
86.7998 262.0
86.8667 225.0
86.9335 253.0
87.0004 244.0
87.0672 263.0
87.1341 242.0
87.2009 242.0
87.2677 247.0
87.3346 276.0
87.4014 217.0
87.4683 246.0
87.5351 261.0
87.602 251.0
87.6688 252.0
87.7357 256.0
87.8025 320.0
87.8693 257.0
87.9362 259.0
88.003 245.0
88.0699 221.0
88.1367 266.0
88.2036 222.0
88.2704 237.0
88.3373 258.0
88.4041 250.0
88.471 233.0
88.5378 230.0
88.6046 253.0
88.6715 253.0
88.7383 215.0
88.8052 251.0
88.872 245.0
88.9389 229.0
89.0057 247.0
89.0726 253.0
89.1394 252.0
89.2063 254.0
89.2731 244.0
89.3399 208.0
89.4068 222.0
89.4736 205.0
89.5405 223.0
89.6073 232.0
89.6742 251.0
89.741 242.0
89.8079 225.0
89.8747 236.0
89.9415 222.0