File: code/XRD_Analysis/External Sources/Alex_SAPO/20220523_SAPO-34_30_220511_calc12h650C.xy
4.98146 803.0
5.0483 778.0
5.11515 786.0
5.18199 817.0
5.24884 789.0
5.31568 756.0
5.38253 773.0
5.44937 725.0
5.51622 711.0
5.58306 716.0
5.64991 744.0
5.71675 713.0
5.7836 735.0
5.85044 710.0
5.91729 740.0
5.98413 703.0
6.05098 681.0
6.11782 688.0
6.18467 665.0
6.25151 638.0
6.31836 678.0
6.3852 588.0
6.45205 681.0
6.51889 628.0
6.58574 621.0
6.65258 623.0
6.71943 622.0
6.78627 600.0
6.85312 579.0
6.91996 597.0
6.98681 620.0
7.05365 609.0
7.1205 609.0
7.18734 598.0
7.25419 618.0
7.32103 543.0
7.38788 686.0
7.45472 613.0
7.52157 571.0
7.58841 535.0
7.65526 566.0
7.7221 544.0
7.78895 566.0
7.85579 567.0
7.92264 551.0
7.98948 503.0
8.05633 522.0
8.12317 501.0
8.19002 503.0
8.25686 494.0
8.32371 533.0
8.39055 497.0
8.4574 523.0
8.52424 536.0
8.59109 523.0
8.65793 527.0
8.72478 538.0
8.79162 547.0
8.85847 548.0
8.92532 534.0
8.99216 563.0
9.05901 665.0
9.12585 651.0
9.1927 809.0
9.25954 1302.0
9.32639 2605.0
9.39323 6559.0
9.46008 13641.0
9.52692 11665.0
9.59377 4734.0
9.66061 2205.0
9.72746 1478.0
9.7943 1229.0
9.86115 1129.0
9.92799 1112.0
9.99484 989.0
10.0617 847.0
10.1285 761.0
10.1954 816.0
10.2622 713.0
10.3291 706.0
10.3959 698.0
10.4628 722.0
10.5296 782.0
10.5964 792.0
10.6633 699.0
10.7301 685.0
10.797 641.0
10.8638 621.0
10.9307 587.0
10.9975 590.0
11.0644 581.0
11.1312 637.0
11.198 560.0
11.2649 548.0
11.3317 552.0
11.3986 563.0
11.4654 454.0
11.5323 498.0
11.5991 538.0
11.666 553.0
11.7328 491.0
11.7997 522.0
11.8665 509.0
11.9333 539.0
12.0002 500.0
12.067 518.0
12.1339 525.0
12.2007 517.0
12.2676 527.0
12.3344 538.0
12.4013 560.0
12.4681 557.0
12.5349 592.0
12.6018 652.0
12.6686 767.0
12.7355 1027.0
12.8023 1789.0
12.8692 2791.0
12.936 2493.0
13.0029 1493.0
13.0697 994.0
13.1366 801.0
13.2034 630.0
13.2702 626.0
13.3371 700.0
13.4039 695.0
13.4708 652.0
13.5376 573.0
13.6045 510.0
13.6713 470.0
13.7382 433.0
13.805 450.0
13.8719 534.0
13.9387 604.0
14.0055 588.0
14.0724 533.0
14.1392 498.0
14.2061 424.0
14.2729 436.0
14.3398 467.0
14.4066 486.0
14.4735 439.0
14.5403 422.0
14.6071 418.0
14.674 401.0
14.7408 433.0
14.8077 448.0
14.8745 430.0
14.9414 411.0
15.0082 436.0
15.0751 486.0
15.1419 431.0
15.2088 481.0
15.2756 492.0
15.3424 519.0
15.4093 537.0
15.4761 533.0
15.543 547.0
15.6098 553.0
15.6767 588.0
15.7435 602.0
15.8104 612.0
15.8772 787.0
15.944 1010.0
16.0109 1746.0
16.0777 1853.0
16.1446 1245.0
16.2114 801.0
16.2783 654.0
16.3451 658.0
16.412 629.0
16.4788 630.0
16.5457 650.0
16.6125 715.0
16.6793 720.0
16.7462 778.0
16.813 935.0
16.8799 944.0
16.9467 956.0
17.0136 914.0
17.0804 846.0
17.1473 856.0
17.2141 741.0
17.2809 813.0
17.3478 715.0
17.4146 645.0
17.4815 736.0
17.5483 670.0
17.6152 757.0
17.682 856.0
17.7489 996.0
17.8157 925.0
17.8826 755.0
17.9494 753.0
18.0162 642.0
18.0831 578.0
18.1499 561.0
18.2168 615.0
18.2836 599.0
18.3505 596.0
18.4173 542.0
18.4842 633.0
18.551 611.0
18.6179 556.0
18.6847 587.0
18.7515 595.0
18.8184 599.0
18.8852 679.0
18.9521 739.0
19.0189 897.0
19.0858 1094.0
19.1526 924.0
19.2195 815.0
19.2863 759.0
19.3531 768.0
19.42 732.0
19.4868 707.0
19.5537 700.0
19.6205 695.0
19.6874 735.0
19.7542 692.0
19.8211 731.0
19.8879 755.0
19.9548 819.0
20.0216 797.0
20.0884 839.0
20.1553 894.0
20.2221 901.0
20.289 924.0
20.3558 942.0
20.4227 1020.0
20.4895 1267.0
20.5564 1857.0
20.6232 2752.0
20.69 3047.0
20.7569 2280.0
20.8237 1565.0
20.8906 1222.0
20.9574 1073.0
21.0243 988.0
21.0911 987.0
21.158 1012.0
21.2248 1076.0
21.2917 1144.0
21.3585 1272.0
21.4253 1163.0
21.4922 950.0
21.559 828.0
21.6259 762.0
21.6927 659.0
21.7596 635.0
21.8264 654.0
21.8933 647.0
21.9601 637.0
22.0269 696.0
22.0938 696.0
22.1606 705.0
22.2275 598.0
22.2943 706.0
22.3612 684.0
22.428 732.0
22.4949 729.0
22.5617 751.0
22.6286 772.0
22.6954 698.0
22.7622 719.0
22.8291 720.0
22.8959 779.0
22.9628 784.0
23.0296 877.0
23.0965 1034.0
23.1633 1084.0
23.2302 956.0
23.297 810.0
23.3639 743.0
23.4307 699.0
23.4975 730.0
23.5644 720.0
23.6312 816.0
23.6981 856.0
23.7649 914.0
23.8318 918.0
23.8986 941.0
23.9655 965.0
24.0323 1002.0
24.0991 954.0
24.166 932.0
24.2328 887.0
24.2997 949.0
24.3665 926.0
24.4334 849.0
24.5002 815.0
24.5671 821.0
24.6339 857.0
24.7008 834.0
24.7676 832.0
24.8344 963.0
24.9013 1008.0
24.9681 1158.0
25.035 1110.0
25.1018 971.0
25.1687 840.0
25.2355 809.0
25.3024 812.0
25.3692 806.0
25.436 844.0
25.5029 851.0
25.5697 763.0
25.6366 837.0
25.7034 906.0
25.7703 950.0
25.8371 1062.0
25.904 1143.0
25.9708 1351.0
26.0377 1538.0
26.1045 1313.0
26.1713 1212.0
26.2382 1021.0
26.305 1019.0
26.3719 962.0
26.4387 1021.0
26.5056 882.0
26.5724 907.0
26.6393 814.0
26.7061 807.0
26.773 767.0
26.8398 807.0
26.9066 748.0
26.9735 726.0
27.0403 704.0
27.1072 740.0
27.174 716.0
27.2409 713.0
27.3077 695.0
27.3746 685.0
27.4414 708.0
27.5082 668.0
27.5751 679.0
27.6419 748.0
27.7088 846.0
27.7756 844.0
27.8425 806.0
27.9093 792.0
27.9762 795.0
28.043 746.0
28.1099 787.0
28.1767 831.0
28.2435 808.0
28.3104 792.0
28.3772 795.0
28.4441 782.0
28.5109 701.0
28.5778 724.0
28.6446 661.0
28.7115 761.0
28.7783 736.0
28.8451 689.0
28.912 713.0
28.9788 694.0
29.0457 693.0
29.1125 744.0
29.1794 738.0
29.2462 670.0
29.3131 726.0
29.3799 714.0
29.4468 700.0
29.5136 738.0
29.5804 761.0
29.6473 806.0
29.7141 815.0
29.781 784.0
29.8478 837.0
29.9147 821.0
29.9815 864.0
30.0484 885.0
30.1152 856.0
30.182 971.0
30.2489 930.0
30.3157 967.0
30.3826 1053.0
30.4494 1073.0
30.5163 1162.0
30.5831 1160.0
30.65 1403.0
30.7168 1604.0
30.7837 1770.0
30.8505 1736.0
30.9173 1534.0
30.9842 1516.0
31.051 1572.0
31.1179 1687.0
31.1847 1604.0
31.2516 1457.0
31.3184 1229.0
31.3853 1175.0
31.4521 1045.0
31.519 925.0
31.5858 941.0
31.6526 929.0
31.7195 917.0
31.7863 867.0
31.8532 886.0
31.92 857.0
31.9869 835.0
32.0537 752.0
32.1206 760.0
32.1874 745.0
32.2542 729.0
32.3211 738.0
32.3879 785.0
32.4548 769.0
32.5216 738.0
32.5885 802.0
32.6553 721.0
32.7222 728.0
32.789 691.0
32.8559 698.0
32.9227 674.0
32.9895 643.0
33.0564 625.0
33.1232 600.0
33.1901 638.0
33.2569 580.0
33.3238 575.0
33.3906 550.0
33.4575 551.0
33.5243 531.0
33.5911 588.0
33.658 497.0
33.7248 512.0
33.7917 500.0
33.8585 550.0
33.9254 487.0
33.9922 521.0
34.0591 464.0
34.1259 539.0
34.1928 500.0
34.2596 493.0
34.3264 435.0
34.3933 456.0
34.4601 457.0
34.527 479.0
34.5938 525.0
34.6607 503.0
34.7275 520.0
34.7944 490.0
34.8612 516.0
34.928 447.0
34.9949 446.0
35.0617 450.0
35.1286 413.0
35.1954 420.0
35.2623 440.0
35.3291 486.0
35.396 442.0
35.4628 411.0
35.5297 442.0
35.5965 379.0
35.6633 412.0
35.7302 391.0
35.797 355.0
35.8639 412.0
35.9307 385.0
35.9976 412.0
36.0644 407.0
36.1313 426.0
36.1981 441.0
36.265 431.0
36.3318 377.0
36.3986 415.0
36.4655 367.0
36.5323 398.0
36.5992 346.0
36.666 355.0
36.7329 375.0
36.7997 329.0
36.8666 372.0
36.9334 351.0
37.0002 340.0
37.0671 328.0
37.1339 315.0
37.2008 354.0
37.2676 317.0
37.3345 318.0
37.4013 299.0
37.4682 303.0
37.535 300.0
37.6019 303.0
37.6687 287.0
37.7355 272.0
37.8024 326.0
37.8692 324.0
37.9361 320.0
38.0029 318.0
38.0698 289.0
38.1366 310.0
38.2035 285.0
38.2703 285.0
38.3371 318.0
38.404 313.0
38.4708 293.0
38.5377 305.0
38.6045 317.0
38.6714 307.0
38.7382 279.0
38.8051 292.0
38.8719 341.0
38.9388 302.0
39.0056 257.0
39.0724 303.0
39.1393 292.0
39.2061 332.0
39.273 305.0
39.3398 317.0
39.4067 363.0
39.4735 325.0
39.5404 364.0
39.6072 305.0
39.6741 316.0
39.7409 331.0
39.8077 329.0
39.8746 330.0
39.9414 391.0
40.0083 321.0
40.0751 332.0
40.142 287.0
40.2088 290.0
40.2757 302.0
40.3425 298.0
40.4093 297.0
40.4762 311.0
40.543 282.0
40.6099 290.0
40.6767 333.0
40.7436 305.0
40.8104 322.0
40.8773 302.0
40.9441 320.0
41.011 323.0
41.0778 301.0
41.1446 283.0
41.2115 304.0
41.2783 322.0
41.3452 294.0
41.412 309.0
41.4789 341.0
41.5457 241.0
41.6126 290.0
41.6794 292.0
41.7462 292.0
41.8131 303.0
41.8799 274.0
41.9468 294.0
42.0136 293.0
42.0805 263.0
42.1473 305.0
42.2142 271.0
42.281 307.0
42.3479 287.0
42.4147 311.0
42.4815 310.0
42.5484 324.0
42.6152 292.0
42.6821 297.0
42.7489 269.0
42.8158 304.0
42.8826 309.0
42.9495 323.0
43.0163 357.0
43.0831 347.0
43.15 329.0
43.2168 322.0
43.2837 339.0
43.3505 335.0
43.4174 326.0
43.4842 336.0
43.5511 321.0
43.6179 331.0
43.6848 323.0
43.7516 298.0
43.8184 299.0
43.8853 294.0
43.9521 292.0
44.019 275.0
44.0858 279.0
44.1527 279.0
44.2195 255.0
44.2864 305.0
44.3532 298.0
44.4201 286.0
44.4869 270.0
44.5537 289.0
44.6206 280.0
44.6874 279.0
44.7543 280.0
44.8211 274.0
44.888 277.0
44.9548 271.0
45.0217 289.0
45.0885 282.0
45.1553 277.0
45.2222 241.0
45.289 274.0
45.3559 301.0
45.4227 270.0
45.4896 259.0
45.5564 283.0
45.6233 307.0
45.6901 255.0
45.757 275.0
45.8238 288.0
45.8906 268.0
45.9575 262.0
46.0243 252.0
46.0912 266.0
46.158 264.0
46.2249 271.0
46.2917 283.0
46.3586 259.0
46.4254 282.0
46.4922 304.0
46.5591 233.0
46.6259 303.0
46.6928 283.0
46.7596 272.0
46.8265 285.0
46.8933 272.0
46.9602 302.0
47.027 250.0
47.0939 293.0
47.1607 297.0
47.2275 280.0
47.2944 272.0
47.3612 274.0
47.4281 279.0
47.4949 305.0
47.5618 285.0
47.6286 262.0
47.6955 280.0
47.7623 276.0
47.8291 263.0
47.896 294.0
47.9628 264.0
48.0297 282.0
48.0965 262.0
48.1634 308.0
48.2302 285.0
48.2971 261.0
48.3639 255.0
48.4308 292.0
48.4976 278.0
48.5644 299.0
48.6313 256.0
48.6981 251.0
48.765 313.0
48.8318 288.0
48.8987 335.0
48.9655 370.0
49.0324 338.0
49.0992 365.0
49.1661 355.0
49.2329 407.0
49.2997 335.0
49.3666 311.0
49.4334 293.0
49.5003 302.0
49.5671 346.0
49.634 332.0
49.7008 304.0
49.7677 332.0
49.8345 275.0
49.9013 305.0
49.9682 283.0
50.035 294.0
50.1019 288.0
50.1687 298.0
50.2356 287.0
50.3024 291.0
50.3693 289.0
50.4361 291.0
50.503 269.0
50.5698 287.0
50.6366 290.0
50.7035 276.0
50.7703 297.0
50.8372 297.0
50.904 325.0
50.9709 320.0
51.0377 326.0
51.1046 314.0
51.1714 326.0
51.2382 317.0
51.3051 279.0
51.3719 294.0
51.4388 294.0
51.5056 291.0
51.5725 286.0
51.6393 274.0
51.7062 256.0
51.773 320.0
51.8399 277.0
51.9067 300.0
51.9735 301.0
52.0404 254.0
52.1072 311.0
52.1741 274.0
52.2409 316.0
52.3078 276.0
52.3746 288.0
52.4415 271.0
52.5083 241.0
52.5751 264.0
52.642 295.0
52.7088 271.0
52.7757 280.0
52.8425 262.0
52.9094 288.0
52.9762 256.0
53.0431 267.0
53.1099 248.0
53.1768 278.0
53.2436 270.0
53.3104 282.0
53.3773 232.0
53.4441 300.0
53.511 292.0
53.5778 299.0
53.6447 295.0
53.7115 291.0
53.7784 297.0
53.8452 261.0
53.9121 320.0
53.9789 248.0
54.0457 287.0
54.1126 277.0
54.1794 237.0
54.2463 282.0
54.3131 276.0
54.38 269.0
54.4468 252.0
54.5137 283.0
54.5805 245.0
54.6473 283.0
54.7142 286.0
54.781 263.0
54.8479 291.0
54.9147 299.0
54.9816 243.0
55.0484 253.0
55.1153 245.0
55.1821 256.0
55.249 230.0
55.3158 251.0
55.3826 295.0
55.4495 262.0
55.5163 268.0
55.5832 263.0
55.65 267.0
55.7169 255.0
55.7837 269.0
55.8506 268.0
55.9174 267.0
55.9842 260.0
56.0511 263.0
56.1179 248.0
56.1848 235.0
56.2516 283.0
56.3185 260.0
56.3853 275.0
56.4522 267.0
56.519 252.0
56.5859 288.0
56.6527 255.0
56.7195 248.0
56.7864 266.0
56.8532 258.0
56.9201 246.0
56.9869 257.0
57.0538 272.0
57.1206 254.0
57.1875 233.0
57.2543 226.0
57.3212 238.0
57.388 252.0
57.4548 253.0
57.5217 253.0
57.5885 239.0
57.6554 243.0
57.7222 224.0
57.7891 204.0
57.8559 239.0
57.9228 250.0
57.9896 235.0
58.0564 230.0
58.1233 243.0
58.1901 220.0
58.257 238.0
58.3238 237.0
58.3907 250.0
58.4575 237.0
58.5244 252.0
58.5912 231.0
58.6581 225.0
58.7249 216.0
58.7917 239.0
58.8586 209.0
58.9254 227.0
58.9923 259.0
59.0591 221.0
59.126 212.0
59.1928 248.0
59.2597 235.0
59.3265 226.0
59.3933 240.0
59.4602 229.0
59.527 269.0
59.5939 246.0
59.6607 235.0
59.7276 257.0
59.7944 235.0
59.8613 254.0
59.9281 253.0
59.995 259.0
60.0618 231.0
60.1286 239.0
60.1955 244.0
60.2623 239.0
60.3292 219.0
60.396 222.0
60.4629 225.0
60.5297 254.0
60.5966 228.0
60.6634 271.0
60.7302 232.0
60.7971 239.0
60.8639 230.0
60.9308 230.0
60.9976 217.0
61.0645 241.0
61.1313 259.0
61.1982 236.0
61.265 248.0
61.3319 259.0
61.3987 247.0
61.4655 277.0
61.5324 238.0
61.5992 251.0
61.6661 227.0
61.7329 227.0
61.7998 251.0
61.8666 233.0
61.9335 242.0
62.0003 266.0
62.0672 211.0
62.134 242.0
62.2008 220.0
62.2677 239.0
62.3345 194.0
62.4014 233.0
62.4682 235.0
62.5351 241.0
62.6019 229.0
62.6688 227.0
62.7356 228.0
62.8024 210.0
62.8693 228.0
62.9361 246.0
63.003 209.0
63.0698 198.0
63.1367 224.0
63.2035 213.0
63.2704 231.0
63.3372 237.0
63.4041 236.0
63.4709 241.0
63.5377 240.0
63.6046 226.0
63.6714 235.0
63.7383 207.0
63.8051 175.0
63.872 229.0
63.9388 205.0
64.0057 221.0
64.0725 228.0
64.1393 235.0
64.2062 233.0
64.273 197.0
64.3399 229.0
64.4067 233.0
64.4736 226.0
64.5404 207.0
64.6073 193.0
64.6741 183.0
64.741 250.0
64.8078 229.0
64.8746 235.0
64.9415 220.0
65.0083 214.0
65.0752 219.0
65.142 204.0
65.2089 255.0
65.2757 244.0
65.3426 231.0
65.4094 221.0
65.4762 216.0
65.5431 248.0
65.6099 212.0
65.6768 224.0
65.7436 223.0
65.8105 243.0
65.8773 263.0
65.9442 213.0
66.011 199.0
66.0779 206.0
66.1447 230.0
66.2115 223.0
66.2784 217.0
66.3452 237.0
66.4121 201.0
66.4789 224.0
66.5458 228.0
66.6126 219.0
66.6795 224.0
66.7463 254.0
66.8132 224.0
66.88 247.0
66.9468 237.0
67.0137 227.0
67.0805 227.0
67.1474 224.0
67.2142 242.0
67.2811 235.0
67.3479 208.0
67.4148 208.0
67.4816 184.0
67.5484 231.0
67.6153 232.0
67.6821 209.0
67.749 220.0
67.8158 207.0
67.8827 229.0
67.9495 209.0
68.0164 207.0
68.0832 195.0
68.1501 242.0
68.2169 226.0
68.2837 231.0
68.3506 212.0
68.4174 200.0
68.4843 213.0
68.5511 238.0
68.618 213.0
68.6848 220.0
68.7517 213.0
68.8185 199.0
68.8853 203.0
68.9522 180.0
69.019 204.0
69.0859 191.0
69.1527 213.0
69.2196 227.0
69.2864 225.0
69.3533 211.0
69.4201 220.0
69.487 215.0
69.5538 239.0
69.6206 224.0
69.6875 230.0
69.7543 220.0
69.8212 214.0
69.888 210.0
69.9549 222.0
70.0217 214.0
70.0886 214.0
70.1554 210.0
70.2222 185.0
70.2891 247.0
70.3559 208.0
70.4228 190.0
70.4896 235.0
70.5565 212.0
70.6233 204.0
70.6902 235.0
70.757 200.0
70.8239 217.0
70.8907 189.0
70.9575 204.0
71.0244 164.0
71.0912 222.0
71.1581 217.0
71.2249 206.0
71.2918 196.0
71.3586 227.0
71.4255 194.0
71.4923 179.0
71.5592 217.0
71.626 214.0
71.6928 219.0
71.7597 216.0
71.8265 199.0
71.8934 215.0
71.9602 211.0
72.0271 222.0
72.0939 183.0
72.1608 183.0
72.2276 207.0
72.2944 194.0
72.3613 205.0
72.4281 192.0
72.495 217.0
72.5618 192.0
72.6287 208.0
72.6955 205.0
72.7624 176.0
72.8292 210.0
72.8961 178.0
72.9629 194.0
73.0297 215.0
73.0966 196.0
73.1634 178.0
73.2303 185.0
73.2971 179.0
73.364 200.0
73.4308 199.0
73.4977 177.0
73.5645 181.0
73.6313 201.0
73.6982 173.0
73.765 185.0
73.8319 179.0
73.8987 191.0
73.9656 155.0
74.0324 188.0
74.0993 230.0
74.1661 174.0
74.233 198.0
74.2998 175.0
74.3666 180.0
74.4335 177.0
74.5003 184.0
74.5672 189.0
74.634 207.0
74.7009 183.0
74.7677 191.0
74.8346 206.0
74.9014 162.0
74.9683 193.0
75.0351 176.0
75.1019 173.0
75.1688 172.0
75.2356 151.0
75.3025 183.0
75.3693 193.0
75.4362 162.0
75.503 173.0
75.5699 191.0
75.6367 167.0
75.7035 203.0
75.7704 206.0
75.8372 175.0
75.9041 174.0
75.9709 200.0
76.0378 173.0
76.1046 169.0
76.1715 169.0
76.2383 185.0
76.3052 161.0
76.372 159.0
76.4388 203.0
76.5057 191.0
76.5725 184.0
76.6394 155.0
76.7062 205.0
76.7731 168.0
76.8399 165.0
76.9068 192.0
76.9736 182.0
77.0404 170.0
77.1073 159.0
77.1741 170.0
77.241 182.0
77.3078 179.0
77.3747 162.0
77.4415 158.0
77.5084 184.0
77.5752 175.0
77.6421 183.0
77.7089 169.0
77.7757 155.0
77.8426 164.0
77.9094 191.0
77.9763 164.0
78.0431 158.0
78.11 155.0
78.1768 141.0
78.2437 175.0
78.3105 153.0
78.3773 153.0
78.4442 168.0
78.511 163.0
78.5779 201.0
78.6447 179.0
78.7116 155.0
78.7784 150.0
78.8453 180.0
78.9121 176.0
78.979 157.0
79.0458 153.0
79.1126 162.0
79.1795 168.0
79.2463 151.0
79.3132 162.0
79.38 154.0
79.4469 143.0
79.5137 155.0
79.5806 154.0
79.6474 160.0
79.7143 144.0
79.7811 143.0
79.8479 151.0
79.9148 158.0
79.9816 130.0
80.0485 149.0
80.1153 149.0
80.1822 176.0
80.249 152.0
80.3159 147.0
80.3827 143.0
80.4495 129.0
80.5164 161.0
80.5832 144.0
80.6501 162.0
80.7169 146.0
80.7838 161.0
80.8506 159.0
80.9175 170.0
80.9843 174.0
81.0512 152.0
81.118 166.0
81.1848 146.0
81.2517 139.0
81.3185 150.0
81.3854 147.0
81.4522 149.0
81.5191 149.0
81.5859 142.0
81.6528 131.0
81.7196 141.0
81.7864 126.0
81.8533 148.0
81.9201 130.0
81.987 160.0
82.0538 135.0
82.1207 158.0
82.1875 139.0
82.2544 141.0
82.3212 134.0
82.3881 146.0
82.4549 130.0
82.5217 148.0
82.5886 154.0
82.6554 116.0
82.7223 138.0
82.7891 141.0
82.856 143.0
82.9228 138.0
82.9897 115.0
83.0565 130.0
83.1233 137.0
83.1902 120.0
83.257 125.0
83.3239 150.0
83.3907 145.0
83.4576 138.0
83.5244 107.0
83.5913 131.0
83.6581 113.0
83.725 129.0
83.7918 129.0
83.8586 129.0
83.9255 116.0
83.9923 125.0
84.0592 143.0
84.126 115.0
84.1929 129.0
84.2597 123.0
84.3266 142.0
84.3934 138.0
84.4603 131.0
84.5271 129.0
84.5939 141.0
84.6608 130.0
84.7276 119.0
84.7945 106.0
84.8613 121.0
84.9282 117.0
84.995 146.0
85.0619 114.0
85.1287 113.0
85.1955 101.0
85.2624 134.0
85.3292 123.0
85.3961 125.0
85.4629 125.0
85.5298 122.0
85.5966 128.0
85.6635 121.0
85.7303 127.0
85.7972 107.0
85.864 111.0
85.9308 129.0
85.9977 122.0
86.0645 120.0
86.1314 146.0
86.1982 101.0
86.2651 125.0
86.3319 127.0
86.3988 106.0
86.4656 123.0
86.5324 131.0
86.5993 122.0
86.6661 119.0
86.733 103.0
86.7998 119.0
86.8667 108.0
86.9335 123.0
87.0004 115.0
87.0672 101.0
87.1341 125.0
87.2009 113.0
87.2677 129.0
87.3346 112.0
87.4014 136.0
87.4683 112.0
87.5351 102.0
87.602 101.0
87.6688 118.0
87.7357 129.0
87.8025 111.0
87.8693 103.0
87.9362 111.0
88.003 115.0
88.0699 123.0
88.1367 112.0
88.2036 102.0
88.2704 106.0
88.3373 119.0
88.4041 106.0
88.471 133.0
88.5378 95.0
88.6046 90.0
88.6715 112.0
88.7383 117.0
88.8052 127.0
88.872 114.0
88.9389 105.0
89.0057 94.0
89.0726 113.0
89.1394 101.0
89.2063 126.0
89.2731 101.0
89.3399 110.0
89.4068 116.0
89.4736 111.0
89.5405 107.0
89.6073 99.0
89.6742 102.0
89.741 126.0
89.8079 99.0
89.8747 117.0
89.9415 99.0