File: code/XRD_Analysis/External Sources/Alex_SAPO/20220523_SAPO-34_70_220511_calc12h650C.xy
4.98146 803.0
5.0483 839.0
5.11515 806.0
5.18199 847.0
5.24884 734.0
5.31568 815.0
5.38253 730.0
5.44937 795.0
5.51622 789.0
5.58306 799.0
5.64991 729.0
5.71675 668.0
5.7836 711.0
5.85044 737.0
5.91729 638.0
5.98413 696.0
6.05098 638.0
6.11782 680.0
6.18467 664.0
6.25151 673.0
6.31836 641.0
6.3852 657.0
6.45205 646.0
6.51889 650.0
6.58574 623.0
6.65258 599.0
6.71943 657.0
6.78627 613.0
6.85312 600.0
6.91996 527.0
6.98681 619.0
7.05365 659.0
7.1205 629.0
7.18734 589.0
7.25419 584.0
7.32103 578.0
7.38788 584.0
7.45472 599.0
7.52157 547.0
7.58841 571.0
7.65526 600.0
7.7221 563.0
7.78895 538.0
7.85579 548.0
7.92264 554.0
7.98948 519.0
8.05633 572.0
8.12317 521.0
8.19002 537.0
8.25686 523.0
8.32371 551.0
8.39055 521.0
8.4574 514.0
8.52424 526.0
8.59109 518.0
8.65793 539.0
8.72478 523.0
8.79162 506.0
8.85847 533.0
8.92532 540.0
8.99216 528.0
9.05901 538.0
9.12585 566.0
9.1927 623.0
9.25954 734.0
9.32639 1258.0
9.39323 3223.0
9.46008 8957.0
9.52692 13255.0
9.59377 5712.0
9.66061 1372.0
9.72746 878.0
9.7943 697.0
9.86115 708.0
9.92799 648.0
9.99484 594.0
10.0617 659.0
10.1285 569.0
10.1954 575.0
10.2622 601.0
10.3291 576.0
10.3959 563.0
10.4628 585.0
10.5296 627.0
10.5964 548.0
10.6633 536.0
10.7301 560.0
10.797 561.0
10.8638 585.0
10.9307 564.0
10.9975 529.0
11.0644 574.0
11.1312 534.0
11.198 517.0
11.2649 554.0
11.3317 547.0
11.3986 547.0
11.4654 531.0
11.5323 517.0
11.5991 524.0
11.666 533.0
11.7328 479.0
11.7997 525.0
11.8665 528.0
11.9333 520.0
12.0002 511.0
12.067 531.0
12.1339 486.0
12.2007 568.0
12.2676 519.0
12.3344 532.0
12.4013 572.0
12.4681 547.0
12.5349 523.0
12.6018 565.0
12.6686 553.0
12.7355 713.0
12.8023 1158.0
12.8692 2368.0
12.936 3391.0
13.0029 1880.0
13.0697 840.0
13.1366 658.0
13.2034 633.0
13.2702 658.0
13.3371 668.0
13.4039 734.0
13.4708 716.0
13.5376 609.0
13.6045 506.0
13.6713 440.0
13.7382 454.0
13.805 450.0
13.8719 486.0
13.9387 652.0
14.0055 566.0
14.0724 536.0
14.1392 470.0
14.2061 446.0
14.2729 455.0
14.3398 485.0
14.4066 456.0
14.4735 466.0
14.5403 494.0
14.6071 464.0
14.674 455.0
14.7408 449.0
14.8077 447.0
14.8745 446.0
14.9414 434.0
15.0082 463.0
15.0751 458.0
15.1419 495.0
15.2088 470.0
15.2756 473.0
15.3424 516.0
15.4093 479.0
15.4761 492.0
15.543 500.0
15.6098 469.0
15.6767 461.0
15.7435 485.0
15.8104 538.0
15.8772 583.0
15.944 730.0
16.0109 1506.0
16.0777 2461.0
16.1446 2180.0
16.2114 1159.0
16.2783 645.0
16.3451 603.0
16.412 576.0
16.4788 622.0
16.5457 654.0
16.6125 669.0
16.6793 762.0
16.7462 761.0
16.813 706.0
16.8799 826.0
16.9467 913.0
17.0136 836.0
17.0804 835.0
17.1473 792.0
17.2141 816.0
17.2809 728.0
17.3478 753.0
17.4146 726.0
17.4815 708.0
17.5483 735.0
17.6152 740.0
17.682 863.0
17.7489 1044.0
17.8157 1115.0
17.8826 928.0
17.9494 772.0
18.0162 659.0
18.0831 634.0
18.1499 643.0
18.2168 606.0
18.2836 584.0
18.3505 560.0
18.4173 588.0
18.4842 585.0
18.551 595.0
18.6179 599.0
18.6847 565.0
18.7515 602.0
18.8184 623.0
18.8852 570.0
18.9521 679.0
19.0189 842.0
19.0858 1122.0
19.1526 1022.0
19.2195 825.0
19.2863 627.0
19.3531 599.0
19.42 576.0
19.4868 647.0
19.5537 596.0
19.6205 619.0
19.6874 633.0
19.7542 610.0
19.8211 616.0
19.8879 651.0
19.9548 664.0
20.0216 677.0
20.0884 678.0
20.1553 691.0
20.2221 743.0
20.289 786.0
20.3558 709.0
20.4227 806.0
20.4895 929.0
20.5564 1421.0
20.6232 2610.0
20.69 3901.0
20.7569 3392.0
20.8237 1909.0
20.8906 1181.0
20.9574 1009.0
21.0243 941.0
21.0911 953.0
21.158 935.0
21.2248 972.0
21.2917 1031.0
21.3585 973.0
21.4253 913.0
21.4922 883.0
21.559 705.0
21.6259 720.0
21.6927 675.0
21.7596 672.0
21.8264 623.0
21.8933 646.0
21.9601 657.0
22.0269 728.0
22.0938 756.0
22.1606 707.0
22.2275 661.0
22.2943 616.0
22.3612 606.0
22.428 668.0
22.4949 691.0
22.5617 661.0
22.6286 648.0
22.6954 609.0
22.7622 699.0
22.8291 690.0
22.8959 713.0
22.9628 759.0
23.0296 826.0
23.0965 1067.0
23.1633 1236.0
23.2302 1204.0
23.297 1034.0
23.3639 825.0
23.4307 721.0
23.4975 757.0
23.5644 751.0
23.6312 774.0
23.6981 793.0
23.7649 813.0
23.8318 803.0
23.8986 908.0
23.9655 833.0
24.0323 857.0
24.0991 836.0
24.166 882.0
24.2328 831.0
24.2997 888.0
24.3665 871.0
24.4334 886.0
24.5002 909.0
24.5671 894.0
24.6339 950.0
24.7008 887.0
24.7676 975.0
24.8344 1028.0
24.9013 1255.0
24.9681 1378.0
25.035 1397.0
25.1018 1193.0
25.1687 1135.0
25.2355 962.0
25.3024 982.0
25.3692 949.0
25.436 920.0
25.5029 941.0
25.5697 926.0
25.6366 974.0
25.7034 922.0
25.7703 951.0
25.8371 954.0
25.904 1172.0
25.9708 1578.0
26.0377 1894.0
26.1045 1861.0
26.1713 1379.0
26.2382 1106.0
26.305 960.0
26.3719 917.0
26.4387 860.0
26.5056 787.0
26.5724 834.0
26.6393 888.0
26.7061 865.0
26.773 825.0
26.8398 854.0
26.9066 817.0
26.9735 791.0
27.0403 782.0
27.1072 809.0
27.174 830.0
27.2409 720.0
27.3077 746.0
27.3746 745.0
27.4414 772.0
27.5082 741.0
27.5751 769.0
27.6419 805.0
27.7088 823.0
27.7756 908.0
27.8425 900.0
27.9093 909.0
27.9762 876.0
28.043 768.0
28.1099 927.0
28.1767 956.0
28.2435 954.0
28.3104 868.0
28.3772 917.0
28.4441 839.0
28.5109 797.0
28.5778 763.0
28.6446 760.0
28.7115 742.0
28.7783 772.0
28.8451 748.0
28.912 753.0
28.9788 729.0
29.0457 710.0
29.1125 722.0
29.1794 779.0
29.2462 797.0
29.3131 774.0
29.3799 777.0
29.4468 800.0
29.5136 801.0
29.5804 848.0
29.6473 931.0
29.7141 978.0
29.781 931.0
29.8478 907.0
29.9147 882.0
29.9815 940.0
30.0484 911.0
30.1152 965.0
30.182 1056.0
30.2489 1040.0
30.3157 1102.0
30.3826 1176.0
30.4494 1261.0
30.5163 1284.0
30.5831 1402.0
30.65 1661.0
30.7168 1859.0
30.7837 2242.0
30.8505 2188.0
30.9173 1986.0
30.9842 1805.0
31.051 1907.0
31.1179 1973.0
31.1847 2040.0
31.2516 1840.0
31.3184 1589.0
31.3853 1319.0
31.4521 1238.0
31.519 1074.0
31.5858 972.0
31.6526 980.0
31.7195 964.0
31.7863 973.0
31.8532 930.0
31.92 945.0
31.9869 878.0
32.0537 856.0
32.1206 802.0
32.1874 799.0
32.2542 806.0
32.3211 771.0
32.3879 685.0
32.4548 784.0
32.5216 793.0
32.5885 774.0
32.6553 730.0
32.7222 695.0
32.789 665.0
32.8559 694.0
32.9227 622.0
32.9895 667.0
33.0564 659.0
33.1232 622.0
33.1901 589.0
33.2569 622.0
33.3238 583.0
33.3906 628.0
33.4575 642.0
33.5243 650.0
33.5911 680.0
33.658 644.0
33.7248 653.0
33.7917 590.0
33.8585 554.0
33.9254 580.0
33.9922 626.0
34.0591 516.0
34.1259 556.0
34.1928 504.0
34.2596 578.0
34.3264 567.0
34.3933 616.0
34.4601 567.0
34.527 553.0
34.5938 610.0
34.6607 629.0
34.7275 631.0
34.7944 561.0
34.8612 626.0
34.928 573.0
34.9949 536.0
35.0617 528.0
35.1286 509.0
35.1954 523.0
35.2623 469.0
35.3291 485.0
35.396 461.0
35.4628 458.0
35.5297 426.0
35.5965 444.0
35.6633 445.0
35.7302 462.0
35.797 457.0
35.8639 443.0
35.9307 472.0
35.9976 507.0
36.0644 483.0
36.1313 497.0
36.1981 521.0
36.265 516.0
36.3318 439.0
36.3986 492.0
36.4655 464.0
36.5323 418.0
36.5992 417.0
36.666 397.0
36.7329 412.0
36.7997 402.0
36.8666 392.0
36.9334 362.0
37.0002 379.0
37.0671 383.0
37.1339 394.0
37.2008 422.0
37.2676 369.0
37.3345 345.0
37.4013 373.0
37.4682 355.0
37.535 310.0
37.6019 370.0
37.6687 370.0
37.7355 364.0
37.8024 383.0
37.8692 381.0
37.9361 351.0
38.0029 351.0
38.0698 347.0
38.1366 331.0
38.2035 376.0
38.2703 334.0
38.3371 334.0
38.404 354.0
38.4708 340.0
38.5377 344.0
38.6045 350.0
38.6714 391.0
38.7382 329.0
38.8051 386.0
38.8719 354.0
38.9388 392.0
39.0056 384.0
39.0724 379.0
39.1393 356.0
39.2061 351.0
39.273 378.0
39.3398 415.0
39.4067 356.0
39.4735 378.0
39.5404 379.0
39.6072 407.0
39.6741 356.0
39.7409 375.0
39.8077 363.0
39.8746 395.0
39.9414 376.0
40.0083 385.0
40.0751 353.0
40.142 323.0
40.2088 377.0
40.2757 404.0
40.3425 346.0
40.4093 362.0
40.4762 324.0
40.543 321.0
40.6099 356.0
40.6767 349.0
40.7436 360.0
40.8104 367.0
40.8773 373.0
40.9441 353.0
41.011 363.0
41.0778 329.0
41.1446 358.0
41.2115 337.0
41.2783 368.0
41.3452 381.0
41.412 368.0
41.4789 351.0
41.5457 321.0
41.6126 388.0
41.6794 371.0
41.7462 364.0
41.8131 349.0
41.8799 360.0
41.9468 355.0
42.0136 349.0
42.0805 335.0
42.1473 355.0
42.2142 348.0
42.281 353.0
42.3479 317.0
42.4147 362.0
42.4815 365.0
42.5484 306.0
42.6152 356.0
42.6821 369.0
42.7489 365.0
42.8158 346.0
42.8826 396.0
42.9495 363.0
43.0163 384.0
43.0831 371.0
43.15 430.0
43.2168 375.0
43.2837 371.0
43.3505 358.0
43.4174 334.0
43.4842 385.0
43.5511 377.0
43.6179 384.0
43.6848 364.0
43.7516 394.0
43.8184 394.0
43.8853 375.0
43.9521 357.0
44.019 371.0
44.0858 318.0
44.1527 354.0
44.2195 353.0
44.2864 385.0
44.3532 330.0
44.4201 356.0
44.4869 363.0
44.5537 305.0
44.6206 348.0
44.6874 338.0
44.7543 351.0
44.8211 339.0
44.888 341.0
44.9548 337.0
45.0217 338.0
45.0885 352.0
45.1553 340.0
45.2222 334.0
45.289 355.0
45.3559 356.0
45.4227 321.0
45.4896 306.0
45.5564 347.0
45.6233 320.0
45.6901 325.0
45.757 335.0
45.8238 299.0
45.8906 329.0
45.9575 351.0
46.0243 389.0
46.0912 316.0
46.158 325.0
46.2249 319.0
46.2917 313.0
46.3586 310.0
46.4254 326.0
46.4922 311.0
46.5591 299.0
46.6259 329.0
46.6928 338.0
46.7596 313.0
46.8265 286.0
46.8933 333.0
46.9602 323.0
47.027 338.0
47.0939 323.0
47.1607 356.0
47.2275 324.0
47.2944 307.0
47.3612 363.0
47.4281 328.0
47.4949 337.0
47.5618 332.0
47.6286 349.0
47.6955 332.0
47.7623 357.0
47.8291 346.0
47.896 340.0
47.9628 316.0
48.0297 328.0
48.0965 381.0
48.1634 338.0
48.2302 370.0
48.2971 369.0
48.3639 323.0
48.4308 314.0
48.4976 316.0
48.5644 338.0
48.6313 309.0
48.6981 354.0
48.765 347.0
48.8318 378.0
48.8987 333.0
48.9655 386.0
49.0324 398.0
49.0992 426.0
49.1661 457.0
49.2329 513.0
49.2997 433.0
49.3666 455.0
49.4334 419.0
49.5003 392.0
49.5671 333.0
49.634 375.0
49.7008 373.0
49.7677 347.0
49.8345 349.0
49.9013 372.0
49.9682 350.0
50.035 329.0
50.1019 336.0
50.1687 388.0
50.2356 386.0
50.3024 325.0
50.3693 344.0
50.4361 353.0
50.503 337.0
50.5698 347.0
50.6366 348.0
50.7035 357.0
50.7703 369.0
50.8372 415.0
50.904 424.0
50.9709 410.0
51.0377 418.0
51.1046 393.0
51.1714 401.0
51.2382 386.0
51.3051 391.0
51.3719 357.0
51.4388 391.0
51.5056 375.0
51.5725 320.0
51.6393 338.0
51.7062 334.0
51.773 346.0
51.8399 316.0
51.9067 367.0
51.9735 353.0
52.0404 336.0
52.1072 345.0
52.1741 311.0
52.2409 348.0
52.3078 319.0
52.3746 326.0
52.4415 331.0
52.5083 313.0
52.5751 315.0
52.642 332.0
52.7088 319.0
52.7757 316.0
52.8425 344.0
52.9094 290.0
52.9762 342.0
53.0431 316.0
53.1099 340.0
53.1768 323.0
53.2436 322.0
53.3104 332.0
53.3773 304.0
53.4441 352.0
53.511 376.0
53.5778 330.0
53.6447 342.0
53.7115 356.0
53.7784 341.0
53.8452 349.0
53.9121 363.0
53.9789 319.0
54.0457 335.0
54.1126 338.0
54.1794 326.0
54.2463 363.0
54.3131 317.0
54.38 329.0
54.4468 328.0
54.5137 332.0
54.5805 314.0
54.6473 337.0
54.7142 322.0
54.781 342.0
54.8479 337.0
54.9147 305.0
54.9816 347.0
55.0484 319.0
55.1153 291.0
55.1821 376.0
55.249 326.0
55.3158 303.0
55.3826 315.0
55.4495 334.0
55.5163 354.0
55.5832 371.0
55.65 332.0
55.7169 345.0
55.7837 340.0
55.8506 357.0
55.9174 293.0
55.9842 303.0
56.0511 294.0
56.1179 336.0
56.1848 320.0
56.2516 301.0
56.3185 340.0
56.3853 316.0
56.4522 318.0
56.519 331.0
56.5859 341.0
56.6527 331.0
56.7195 332.0
56.7864 328.0
56.8532 340.0
56.9201 351.0
56.9869 315.0
57.0538 317.0
57.1206 317.0
57.1875 302.0
57.2543 326.0
57.3212 297.0
57.388 282.0
57.4548 292.0
57.5217 298.0
57.5885 298.0
57.6554 263.0
57.7222 269.0
57.7891 273.0
57.8559 274.0
57.9228 309.0
57.9896 293.0
58.0564 274.0
58.1233 276.0
58.1901 263.0
58.257 292.0
58.3238 293.0
58.3907 305.0
58.4575 292.0
58.5244 293.0
58.5912 316.0
58.6581 300.0
58.7249 239.0
58.7917 271.0
58.8586 262.0
58.9254 266.0
58.9923 277.0
59.0591 277.0
59.126 266.0
59.1928 257.0
59.2597 273.0
59.3265 268.0
59.3933 297.0
59.4602 261.0
59.527 279.0
59.5939 319.0
59.6607 301.0
59.7276 275.0
59.7944 267.0
59.8613 300.0
59.9281 326.0
59.995 299.0
60.0618 314.0
60.1286 314.0
60.1955 308.0
60.2623 279.0
60.3292 298.0
60.396 293.0
60.4629 284.0
60.5297 254.0
60.5966 283.0
60.6634 299.0
60.7302 300.0
60.7971 277.0
60.8639 282.0
60.9308 274.0
60.9976 270.0
61.0645 295.0
61.1313 291.0
61.1982 269.0
61.265 289.0
61.3319 268.0
61.3987 275.0
61.4655 299.0
61.5324 286.0
61.5992 299.0
61.6661 307.0
61.7329 323.0
61.7998 302.0
61.8666 298.0
61.9335 326.0
62.0003 297.0
62.0672 291.0
62.134 275.0
62.2008 287.0
62.2677 284.0
62.3345 273.0
62.4014 263.0
62.4682 298.0
62.5351 293.0
62.6019 272.0
62.6688 255.0
62.7356 279.0
62.8024 240.0
62.8693 247.0
62.9361 269.0
63.003 276.0
63.0698 279.0
63.1367 278.0
63.2035 271.0
63.2704 280.0
63.3372 301.0
63.4041 315.0
63.4709 256.0
63.5377 280.0
63.6046 248.0
63.6714 284.0
63.7383 268.0
63.8051 271.0
63.872 271.0
63.9388 280.0
64.0057 266.0
64.0725 269.0
64.1393 273.0
64.2062 298.0
64.273 277.0
64.3399 251.0
64.4067 285.0
64.4736 290.0
64.5404 254.0
64.6073 275.0
64.6741 293.0
64.741 267.0
64.8078 231.0
64.8746 270.0
64.9415 251.0
65.0083 232.0
65.0752 258.0
65.142 317.0
65.2089 278.0
65.2757 276.0
65.3426 284.0
65.4094 272.0
65.4762 277.0
65.5431 269.0
65.6099 273.0
65.6768 268.0
65.7436 286.0
65.8105 273.0
65.8773 264.0
65.9442 266.0
66.011 275.0
66.0779 310.0
66.1447 275.0
66.2115 303.0
66.2784 287.0
66.3452 289.0
66.4121 289.0
66.4789 299.0
66.5458 289.0
66.6126 320.0
66.6795 299.0
66.7463 308.0
66.8132 309.0
66.88 320.0
66.9468 338.0
67.0137 293.0
67.0805 322.0
67.1474 308.0
67.2142 317.0
67.2811 301.0
67.3479 277.0
67.4148 277.0
67.4816 255.0
67.5484 299.0
67.6153 266.0
67.6821 301.0
67.749 263.0
67.8158 247.0
67.8827 271.0
67.9495 270.0
68.0164 285.0
68.0832 271.0
68.1501 285.0
68.2169 254.0
68.2837 261.0
68.3506 271.0
68.4174 288.0
68.4843 256.0
68.5511 250.0
68.618 223.0
68.6848 221.0
68.7517 272.0
68.8185 290.0
68.8853 286.0
68.9522 251.0
69.019 267.0
69.0859 259.0
69.1527 259.0
69.2196 259.0
69.2864 262.0
69.3533 287.0
69.4201 275.0
69.487 251.0
69.5538 251.0
69.6206 272.0
69.6875 292.0
69.7543 252.0
69.8212 292.0
69.888 266.0
69.9549 247.0
70.0217 255.0
70.0886 248.0
70.1554 252.0
70.2222 253.0
70.2891 250.0
70.3559 260.0
70.4228 259.0
70.4896 264.0
70.5565 272.0
70.6233 269.0
70.6902 256.0
70.757 251.0
70.8239 243.0
70.8907 257.0
70.9575 271.0
71.0244 272.0
71.0912 282.0
71.1581 237.0
71.2249 246.0
71.2918 263.0
71.3586 278.0
71.4255 263.0
71.4923 242.0
71.5592 241.0
71.626 254.0
71.6928 255.0
71.7597 261.0
71.8265 235.0
71.8934 260.0
71.9602 254.0
72.0271 241.0
72.0939 269.0
72.1608 217.0
72.2276 232.0
72.2944 231.0
72.3613 241.0
72.4281 248.0
72.495 237.0
72.5618 232.0
72.6287 248.0
72.6955 254.0
72.7624 231.0
72.8292 272.0
72.8961 241.0
72.9629 244.0
73.0297 237.0
73.0966 246.0
73.1634 229.0
73.2303 251.0
73.2971 227.0
73.364 224.0
73.4308 246.0
73.4977 244.0
73.5645 225.0
73.6313 239.0
73.6982 211.0
73.765 236.0
73.8319 233.0
73.8987 240.0
73.9656 245.0
74.0324 261.0
74.0993 221.0
74.1661 231.0
74.233 220.0
74.2998 212.0
74.3666 232.0
74.4335 252.0
74.5003 195.0
74.5672 222.0
74.634 239.0
74.7009 245.0
74.7677 221.0
74.8346 231.0
74.9014 235.0
74.9683 226.0
75.0351 243.0
75.1019 217.0
75.1688 244.0
75.2356 238.0
75.3025 225.0
75.3693 221.0
75.4362 214.0
75.503 227.0
75.5699 224.0
75.6367 231.0
75.7035 219.0
75.7704 233.0
75.8372 232.0
75.9041 251.0
75.9709 232.0
76.0378 224.0
76.1046 208.0
76.1715 185.0
76.2383 224.0
76.3052 221.0
76.372 204.0
76.4388 217.0
76.5057 248.0
76.5725 224.0
76.6394 215.0
76.7062 213.0
76.7731 217.0
76.8399 229.0
76.9068 214.0
76.9736 197.0
77.0404 222.0
77.1073 235.0
77.1741 217.0
77.241 203.0
77.3078 201.0
77.3747 199.0
77.4415 200.0
77.5084 228.0
77.5752 232.0
77.6421 203.0
77.7089 201.0
77.7757 216.0
77.8426 222.0
77.9094 194.0
77.9763 205.0
78.0431 205.0
78.11 196.0
78.1768 214.0
78.2437 210.0
78.3105 194.0
78.3773 212.0
78.4442 196.0
78.511 195.0
78.5779 185.0
78.6447 206.0
78.7116 186.0
78.7784 208.0
78.8453 174.0
78.9121 184.0
78.979 220.0
79.0458 200.0
79.1126 203.0
79.1795 192.0
79.2463 194.0
79.3132 213.0
79.38 201.0
79.4469 215.0
79.5137 178.0
79.5806 206.0
79.6474 196.0
79.7143 192.0
79.7811 166.0
79.8479 192.0
79.9148 212.0
79.9816 179.0
80.0485 206.0
80.1153 179.0
80.1822 185.0
80.249 201.0
80.3159 167.0
80.3827 196.0
80.4495 198.0
80.5164 173.0
80.5832 188.0
80.6501 212.0
80.7169 177.0
80.7838 176.0
80.8506 186.0
80.9175 206.0
80.9843 199.0
81.0512 173.0
81.118 198.0
81.1848 186.0
81.2517 169.0
81.3185 159.0
81.3854 194.0
81.4522 175.0
81.5191 204.0
81.5859 184.0
81.6528 179.0
81.7196 172.0
81.7864 166.0
81.8533 169.0
81.9201 168.0
81.987 184.0
82.0538 164.0
82.1207 155.0
82.1875 170.0
82.2544 164.0
82.3212 164.0
82.3881 164.0
82.4549 142.0
82.5217 181.0
82.5886 146.0
82.6554 159.0
82.7223 160.0
82.7891 186.0
82.856 162.0
82.9228 167.0
82.9897 147.0
83.0565 174.0
83.1233 166.0
83.1902 166.0
83.257 144.0
83.3239 167.0
83.3907 175.0
83.4576 167.0
83.5244 164.0
83.5913 179.0
83.6581 186.0
83.725 136.0
83.7918 177.0
83.8586 168.0
83.9255 131.0
83.9923 150.0
84.0592 146.0
84.126 167.0
84.1929 155.0
84.2597 134.0
84.3266 139.0
84.3934 152.0
84.4603 148.0
84.5271 133.0
84.5939 184.0
84.6608 163.0
84.7276 162.0
84.7945 136.0
84.8613 148.0
84.9282 139.0
84.995 166.0
85.0619 172.0
85.1287 142.0
85.1955 143.0
85.2624 163.0
85.3292 120.0
85.3961 168.0
85.4629 161.0
85.5298 158.0
85.5966 134.0
85.6635 173.0
85.7303 152.0
85.7972 157.0
85.864 148.0
85.9308 131.0
85.9977 147.0
86.0645 174.0
86.1314 157.0
86.1982 139.0
86.2651 174.0
86.3319 143.0
86.3988 160.0
86.4656 121.0
86.5324 155.0
86.5993 129.0
86.6661 125.0
86.733 145.0
86.7998 146.0
86.8667 145.0
86.9335 120.0
87.0004 165.0
87.0672 144.0
87.1341 144.0
87.2009 135.0
87.2677 127.0
87.3346 118.0
87.4014 133.0
87.4683 159.0
87.5351 149.0
87.602 152.0
87.6688 144.0
87.7357 120.0
87.8025 152.0
87.8693 120.0
87.9362 127.0
88.003 159.0
88.0699 152.0
88.1367 134.0
88.2036 144.0
88.2704 146.0
88.3373 147.0
88.4041 139.0
88.471 137.0
88.5378 147.0
88.6046 152.0
88.6715 123.0
88.7383 144.0
88.8052 131.0
88.872 122.0
88.9389 137.0
89.0057 125.0
89.0726 151.0
89.1394 120.0
89.2063 146.0
89.2731 125.0
89.3399 143.0
89.4068 136.0
89.4736 125.0
89.5405 144.0
89.6073 135.0
89.6742 127.0
89.741 119.0
89.8079 129.0
89.8747 138.0
89.9415 152.0