File: code/XRD_Analysis/External Sources/Alex_SAPO/20220726_SAPO-34_30_2_220718_calc650C20h.xy
4.98146 1476.0
5.0483 1414.0
5.11515 1422.0
5.18199 1419.0
5.24884 1383.0
5.31568 1361.0
5.38253 1415.0
5.44937 1320.0
5.51622 1259.0
5.58306 1286.0
5.64991 1293.0
5.71675 1278.0
5.7836 1289.0
5.85044 1206.0
5.91729 1222.0
5.98413 1188.0
6.05098 1204.0
6.11782 1153.0
6.18467 1161.0
6.25151 1192.0
6.31836 1152.0
6.3852 1097.0
6.45205 1118.0
6.51889 1093.0
6.58574 1109.0
6.65258 1067.0
6.71943 1070.0
6.78627 1028.0
6.85312 1086.0
6.91996 1058.0
6.98681 1007.0
7.05365 1036.0
7.1205 1050.0
7.18734 1055.0
7.25419 1052.0
7.32103 1013.0
7.38788 1018.0
7.45472 1010.0
7.52157 1017.0
7.58841 946.0
7.65526 961.0
7.7221 992.0
7.78895 878.0
7.85579 975.0
7.92264 914.0
7.98948 970.0
8.05633 955.0
8.12317 934.0
8.19002 906.0
8.25686 924.0
8.32371 917.0
8.39055 949.0
8.4574 873.0
8.52424 880.0
8.59109 911.0
8.65793 828.0
8.72478 867.0
8.79162 900.0
8.85847 840.0
8.92532 885.0
8.99216 879.0
9.05901 820.0
9.12585 928.0
9.1927 960.0
9.25954 1090.0
9.32639 1412.0
9.39323 2665.0
9.46008 7450.0
9.52692 14334.0
9.59377 8151.0
9.66061 1968.0
9.72746 1235.0
9.7943 1066.0
9.86115 1086.0
9.92799 967.0
9.99484 926.0
10.0617 992.0
10.1285 922.0
10.1954 920.0
10.2622 946.0
10.3291 895.0
10.3959 965.0
10.4628 926.0
10.5296 877.0
10.5964 902.0
10.6633 909.0
10.7301 867.0
10.797 882.0
10.8638 836.0
10.9307 885.0
10.9975 781.0
11.0644 855.0
11.1312 870.0
11.198 837.0
11.2649 793.0
11.3317 854.0
11.3986 837.0
11.4654 904.0
11.5323 836.0
11.5991 834.0
11.666 829.0
11.7328 801.0
11.7997 846.0
11.8665 810.0
11.9333 791.0
12.0002 815.0
12.067 809.0
12.1339 740.0
12.2007 800.0
12.2676 791.0
12.3344 822.0
12.4013 797.0
12.4681 805.0
12.5349 818.0
12.6018 857.0
12.6686 824.0
12.7355 910.0
12.8023 1134.0
12.8692 2030.0
12.936 3507.0
13.0029 2745.0
13.0697 1269.0
13.1366 954.0
13.2034 859.0
13.2702 900.0
13.3371 991.0
13.4039 1003.0
13.4708 1027.0
13.5376 945.0
13.6045 828.0
13.6713 762.0
13.7382 709.0
13.805 736.0
13.8719 767.0
13.9387 801.0
14.0055 869.0
14.0724 854.0
14.1392 727.0
14.2061 729.0
14.2729 665.0
14.3398 704.0
14.4066 662.0
14.4735 696.0
14.5403 710.0
14.6071 706.0
14.674 705.0
14.7408 697.0
14.8077 685.0
14.8745 730.0
14.9414 709.0
15.0082 726.0
15.0751 736.0
15.1419 696.0
15.2088 720.0
15.2756 717.0
15.3424 709.0
15.4093 726.0
15.4761 807.0
15.543 766.0
15.6098 799.0
15.6767 762.0
15.7435 770.0
15.8104 774.0
15.8772 819.0
15.944 979.0
16.0109 1428.0
16.0777 2820.0
16.1446 3249.0
16.2114 1905.0
16.2783 1045.0
16.3451 870.0
16.412 871.0
16.4788 910.0
16.5457 917.0
16.6125 972.0
16.6793 1071.0
16.7462 1128.0
16.813 1213.0
16.8799 1234.0
16.9467 1240.0
17.0136 1232.0
17.0804 1274.0
17.1473 1246.0
17.2141 1183.0
17.2809 1115.0
17.3478 1112.0
17.4146 1161.0
17.4815 1036.0
17.5483 989.0
17.6152 996.0
17.682 1069.0
17.7489 1366.0
17.8157 1550.0
17.8826 1497.0
17.9494 1192.0
18.0162 1020.0
18.0831 962.0
18.1499 965.0
18.2168 904.0
18.2836 914.0
18.3505 942.0
18.4173 925.0
18.4842 963.0
18.551 884.0
18.6179 955.0
18.6847 946.0
18.7515 909.0
18.8184 943.0
18.8852 947.0
18.9521 932.0
19.0189 1115.0
19.0858 1503.0
19.1526 1562.0
19.2195 1384.0
19.2863 991.0
19.3531 964.0
19.42 922.0
19.4868 927.0
19.5537 933.0
19.6205 1010.0
19.6874 975.0
19.7542 1051.0
19.8211 1063.0
19.8879 1076.0
19.9548 1101.0
20.0216 1082.0
20.0884 1175.0
20.1553 1212.0
20.2221 1184.0
20.289 1182.0
20.3558 1215.0
20.4227 1245.0
20.4895 1341.0
20.5564 1595.0
20.6232 2759.0
20.69 5049.0
20.7569 5677.0
20.8237 3800.0
20.8906 2213.0
20.9574 1710.0
21.0243 1643.0
21.0911 1587.0
21.158 1625.0
21.2248 1647.0
21.2917 1736.0
21.3585 1773.0
21.4253 1724.0
21.4922 1651.0
21.559 1372.0
21.6259 1276.0
21.6927 1164.0
21.7596 1047.0
21.8264 1074.0
21.8933 1007.0
21.9601 1127.0
22.0269 1140.0
22.0938 1256.0
22.1606 1237.0
22.2275 1132.0
22.2943 1113.0
22.3612 1141.0
22.428 1161.0
22.4949 1154.0
22.5617 1228.0
22.6286 1164.0
22.6954 1190.0
22.7622 1147.0
22.8291 1220.0
22.8959 1267.0
22.9628 1254.0
23.0296 1338.0
23.0965 1441.0
23.1633 1863.0
23.2302 2193.0
23.297 1821.0
23.3639 1429.0
23.4307 1320.0
23.4975 1293.0
23.5644 1267.0
23.6312 1319.0
23.6981 1296.0
23.7649 1416.0
23.8318 1450.0
23.8986 1426.0
23.9655 1448.0
24.0323 1446.0
24.0991 1478.0
24.166 1537.0
24.2328 1487.0
24.2997 1509.0
24.3665 1575.0
24.4334 1620.0
24.5002 1521.0
24.5671 1532.0
24.6339 1590.0
24.7008 1489.0
24.7676 1621.0
24.8344 1668.0
24.9013 1772.0
24.9681 2007.0
25.035 2255.0
25.1018 2239.0
25.1687 1887.0
25.2355 1691.0
25.3024 1564.0
25.3692 1627.0
25.436 1541.0
25.5029 1569.0
25.5697 1572.0
25.6366 1510.0
25.7034 1442.0
25.7703 1522.0
25.8371 1587.0
25.904 1642.0
25.9708 2038.0
26.0377 2785.0
26.1045 3006.0
26.1713 2673.0
26.2382 1939.0
26.305 1705.0
26.3719 1626.0
26.4387 1562.0
26.5056 1476.0
26.5724 1524.0
26.6393 1431.0
26.7061 1428.0
26.773 1426.0
26.8398 1407.0
26.9066 1382.0
26.9735 1345.0
27.0403 1409.0
27.1072 1325.0
27.174 1347.0
27.2409 1309.0
27.3077 1296.0
27.3746 1256.0
27.4414 1241.0
27.5082 1302.0
27.5751 1200.0
27.6419 1329.0
27.7088 1371.0
27.7756 1432.0
27.8425 1591.0
27.9093 1439.0
27.9762 1465.0
28.043 1396.0
28.1099 1424.0
28.1767 1519.0
28.2435 1604.0
28.3104 1599.0
28.3772 1585.0
28.4441 1494.0
28.5109 1415.0
28.5778 1352.0
28.6446 1298.0
28.7115 1277.0
28.7783 1253.0
28.8451 1245.0
28.912 1316.0
28.9788 1265.0
29.0457 1265.0
29.1125 1287.0
29.1794 1307.0
29.2462 1243.0
29.3131 1257.0
29.3799 1332.0
29.4468 1301.0
29.5136 1348.0
29.5804 1395.0
29.6473 1490.0
29.7141 1611.0
29.781 1696.0
29.8478 1529.0
29.9147 1591.0
29.9815 1634.0
30.0484 1583.0
30.1152 1739.0
30.182 1747.0
30.2489 1735.0
30.3157 1783.0
30.3826 1990.0
30.4494 2075.0
30.5163 2197.0
30.5831 2359.0
30.65 2327.0
30.7168 2606.0
30.7837 2950.0
30.8505 3463.0
30.9173 3589.0
30.9842 3264.0
31.051 3057.0
31.1179 3150.0
31.1847 3399.0
31.2516 3515.0
31.3184 3199.0
31.3853 2626.0
31.4521 2233.0
31.519 1912.0
31.5858 1805.0
31.6526 1729.0
31.7195 1720.0
31.7863 1709.0
31.8532 1677.0
31.92 1736.0
31.9869 1629.0
32.0537 1578.0
32.1206 1464.0
32.1874 1450.0
32.2542 1401.0
32.3211 1334.0
32.3879 1425.0
32.4548 1315.0
32.5216 1339.0
32.5885 1416.0
32.6553 1339.0
32.7222 1299.0
32.789 1252.0
32.8559 1195.0
32.9227 1204.0
32.9895 1142.0
33.0564 1087.0
33.1232 1120.0
33.1901 1096.0
33.2569 1040.0
33.3238 1033.0
33.3906 1002.0
33.4575 1128.0
33.5243 1113.0
33.5911 1099.0
33.658 1162.0
33.7248 1140.0
33.7917 1095.0
33.8585 981.0
33.9254 1051.0
33.9922 1015.0
34.0591 978.0
34.1259 1025.0
34.1928 1017.0
34.2596 972.0
34.3264 1004.0
34.3933 974.0
34.4601 949.0
34.527 1026.0
34.5938 899.0
34.6607 979.0
34.7275 1076.0
34.7944 1146.0
34.8612 1159.0
34.928 1040.0
34.9949 889.0
35.0617 919.0
35.1286 930.0
35.1954 938.0
35.2623 922.0
35.3291 959.0
35.396 927.0
35.4628 868.0
35.5297 876.0
35.5965 823.0
35.6633 816.0
35.7302 859.0
35.797 818.0
35.8639 829.0
35.9307 822.0
35.9976 841.0
36.0644 860.0
36.1313 823.0
36.1981 972.0
36.265 925.0
36.3318 870.0
36.3986 833.0
36.4655 806.0
36.5323 760.0
36.5992 804.0
36.666 770.0
36.7329 717.0
36.7997 689.0
36.8666 729.0
36.9334 694.0
37.0002 679.0
37.0671 662.0
37.1339 742.0
37.2008 698.0
37.2676 727.0
37.3345 681.0
37.4013 707.0
37.4682 670.0
37.535 669.0
37.6019 660.0
37.6687 693.0
37.7355 726.0
37.8024 636.0
37.8692 690.0
37.9361 606.0
38.0029 669.0
38.0698 664.0
38.1366 630.0
38.2035 591.0
38.2703 661.0
38.3371 684.0
38.404 648.0
38.4708 656.0
38.5377 632.0
38.6045 659.0
38.6714 636.0
38.7382 664.0
38.8051 683.0
38.8719 659.0
38.9388 654.0
39.0056 685.0
39.0724 684.0
39.1393 721.0
39.2061 660.0
39.273 744.0
39.3398 737.0
39.4067 738.0
39.4735 735.0
39.5404 719.0
39.6072 705.0
39.6741 728.0
39.7409 746.0
39.8077 755.0
39.8746 743.0
39.9414 715.0
40.0083 727.0
40.0751 701.0
40.142 715.0
40.2088 735.0
40.2757 706.0
40.3425 700.0
40.4093 679.0
40.4762 666.0
40.543 637.0
40.6099 699.0
40.6767 646.0
40.7436 689.0
40.8104 684.0
40.8773 648.0
40.9441 704.0
41.011 637.0
41.0778 659.0
41.1446 711.0
41.2115 644.0
41.2783 657.0
41.3452 663.0
41.412 694.0
41.4789 674.0
41.5457 703.0
41.6126 668.0
41.6794 647.0
41.7462 642.0
41.8131 689.0
41.8799 635.0
41.9468 719.0
42.0136 677.0
42.0805 664.0
42.1473 697.0
42.2142 646.0
42.281 656.0
42.3479 692.0
42.4147 643.0
42.4815 585.0
42.5484 679.0
42.6152 646.0
42.6821 672.0
42.7489 628.0
42.8158 667.0
42.8826 651.0
42.9495 678.0
43.0163 660.0
43.0831 745.0
43.15 742.0
43.2168 683.0
43.2837 669.0
43.3505 734.0
43.4174 730.0
43.4842 706.0
43.5511 691.0
43.6179 717.0
43.6848 725.0
43.7516 685.0
43.8184 740.0
43.8853 700.0
43.9521 727.0
44.019 668.0
44.0858 662.0
44.1527 678.0
44.2195 643.0
44.2864 630.0
44.3532 673.0
44.4201 650.0
44.4869 709.0
44.5537 637.0
44.6206 638.0
44.6874 689.0
44.7543 650.0
44.8211 656.0
44.888 664.0
44.9548 652.0
45.0217 660.0
45.0885 663.0
45.1553 703.0
45.2222 631.0
45.289 678.0
45.3559 625.0
45.4227 634.0
45.4896 663.0
45.5564 614.0
45.6233 625.0
45.6901 628.0
45.757 604.0
45.8238 578.0
45.8906 644.0
45.9575 610.0
46.0243 635.0
46.0912 582.0
46.158 656.0
46.2249 617.0
46.2917 610.0
46.3586 607.0
46.4254 643.0
46.4922 617.0
46.5591 610.0
46.6259 610.0
46.6928 547.0
46.7596 636.0
46.8265 609.0
46.8933 584.0
46.9602 589.0
47.027 619.0
47.0939 616.0
47.1607 647.0
47.2275 600.0
47.2944 613.0
47.3612 644.0
47.4281 583.0
47.4949 649.0
47.5618 633.0
47.6286 609.0
47.6955 594.0
47.7623 627.0
47.8291 661.0
47.896 638.0
47.9628 633.0
48.0297 686.0
48.0965 613.0
48.1634 634.0
48.2302 636.0
48.2971 586.0
48.3639 646.0
48.4308 637.0
48.4976 571.0
48.5644 585.0
48.6313 626.0
48.6981 615.0
48.765 573.0
48.8318 643.0
48.8987 647.0
48.9655 697.0
49.0324 750.0
49.0992 806.0
49.1661 819.0
49.2329 888.0
49.2997 881.0
49.3666 818.0
49.4334 833.0
49.5003 770.0
49.5671 726.0
49.634 668.0
49.7008 665.0
49.7677 662.0
49.8345 673.0
49.9013 647.0
49.9682 651.0
50.035 667.0
50.1019 656.0
50.1687 652.0
50.2356 675.0
50.3024 673.0
50.3693 664.0
50.4361 656.0
50.503 630.0
50.5698 710.0
50.6366 670.0
50.7035 658.0
50.7703 688.0
50.8372 706.0
50.904 714.0
50.9709 717.0
51.0377 794.0
51.1046 748.0
51.1714 700.0
51.2382 762.0
51.3051 742.0
51.3719 710.0
51.4388 703.0
51.5056 649.0
51.5725 648.0
51.6393 636.0
51.7062 672.0
51.773 629.0
51.8399 628.0
51.9067 642.0
51.9735 606.0
52.0404 660.0
52.1072 625.0
52.1741 614.0
52.2409 613.0
52.3078 607.0
52.3746 646.0
52.4415 623.0
52.5083 613.0
52.5751 612.0
52.642 601.0
52.7088 596.0
52.7757 606.0
52.8425 585.0
52.9094 533.0
52.9762 576.0
53.0431 565.0
53.1099 599.0
53.1768 602.0
53.2436 601.0
53.3104 570.0
53.3773 627.0
53.4441 656.0
53.511 634.0
53.5778 659.0
53.6447 680.0
53.7115 626.0
53.7784 734.0
53.8452 697.0
53.9121 614.0
53.9789 637.0
54.0457 618.0
54.1126 627.0
54.1794 572.0
54.2463 564.0
54.3131 592.0
54.38 579.0
54.4468 570.0
54.5137 583.0
54.5805 642.0
54.6473 561.0
54.7142 652.0
54.781 619.0
54.8479 639.0
54.9147 616.0
54.9816 575.0
55.0484 590.0
55.1153 612.0
55.1821 536.0
55.249 585.0
55.3158 583.0
55.3826 576.0
55.4495 651.0
55.5163 635.0
55.5832 595.0
55.65 658.0
55.7169 642.0
55.7837 627.0
55.8506 626.0
55.9174 598.0
55.9842 612.0
56.0511 588.0
56.1179 617.0
56.1848 591.0
56.2516 586.0
56.3185 612.0
56.3853 615.0
56.4522 622.0
56.519 645.0
56.5859 643.0
56.6527 616.0
56.7195 696.0
56.7864 602.0
56.8532 592.0
56.9201 615.0
56.9869 607.0
57.0538 609.0
57.1206 563.0
57.1875 582.0
57.2543 550.0
57.3212 520.0
57.388 543.0
57.4548 560.0
57.5217 521.0
57.5885 506.0
57.6554 508.0
57.7222 541.0
57.7891 547.0
57.8559 551.0
57.9228 518.0
57.9896 483.0
58.0564 568.0
58.1233 535.0
58.1901 547.0
58.257 541.0
58.3238 518.0
58.3907 553.0
58.4575 533.0
58.5244 527.0
58.5912 544.0
58.6581 527.0
58.7249 534.0
58.7917 552.0
58.8586 532.0
58.9254 574.0
58.9923 506.0
59.0591 586.0
59.126 531.0
59.1928 564.0
59.2597 534.0
59.3265 524.0
59.3933 561.0
59.4602 581.0
59.527 525.0
59.5939 550.0
59.6607 549.0
59.7276 525.0
59.7944 567.0
59.8613 587.0
59.9281 594.0
59.995 586.0
60.0618 602.0
60.1286 584.0
60.1955 574.0
60.2623 587.0
60.3292 572.0
60.396 580.0
60.4629 542.0
60.5297 496.0
60.5966 556.0
60.6634 552.0
60.7302 534.0
60.7971 532.0
60.8639 571.0
60.9308 516.0
60.9976 528.0
61.0645 547.0
61.1313 494.0
61.1982 560.0
61.265 563.0
61.3319 514.0
61.3987 555.0
61.4655 517.0
61.5324 587.0
61.5992 553.0
61.6661 561.0
61.7329 552.0
61.7998 612.0
61.8666 581.0
61.9335 600.0
62.0003 557.0
62.0672 536.0
62.134 511.0
62.2008 498.0
62.2677 531.0
62.3345 558.0
62.4014 483.0
62.4682 572.0
62.5351 523.0
62.6019 509.0
62.6688 534.0
62.7356 558.0
62.8024 533.0
62.8693 555.0
62.9361 491.0
63.003 527.0
63.0698 520.0
63.1367 536.0
63.2035 518.0
63.2704 541.0
63.3372 524.0
63.4041 507.0
63.4709 504.0
63.5377 519.0
63.6046 518.0
63.6714 474.0
63.7383 552.0
63.8051 528.0
63.872 583.0
63.9388 534.0
64.0057 504.0
64.0725 518.0
64.1393 531.0
64.2062 500.0
64.273 497.0
64.3399 516.0
64.4067 485.0
64.4736 483.0
64.5404 537.0
64.6073 514.0
64.6741 494.0
64.741 554.0
64.8078 528.0
64.8746 559.0
64.9415 548.0
65.0083 498.0
65.0752 565.0
65.142 532.0
65.2089 547.0
65.2757 513.0
65.3426 507.0
65.4094 543.0
65.4762 537.0
65.5431 513.0
65.6099 547.0
65.6768 539.0
65.7436 539.0
65.8105 543.0
65.8773 565.0
65.9442 520.0
66.011 547.0
66.0779 556.0
66.1447 528.0
66.2115 556.0
66.2784 566.0
66.3452 487.0
66.4121 532.0
66.4789 527.0
66.5458 611.0
66.6126 563.0
66.6795 631.0
66.7463 558.0
66.8132 621.0
66.88 583.0
66.9468 599.0
67.0137 631.0
67.0805 594.0
67.1474 610.0
67.2142 598.0
67.2811 564.0
67.3479 606.0
67.4148 567.0
67.4816 511.0
67.5484 563.0
67.6153 555.0
67.6821 579.0
67.749 501.0
67.8158 509.0
67.8827 523.0
67.9495 477.0
68.0164 508.0
68.0832 518.0
68.1501 529.0
68.2169 547.0
68.2837 557.0
68.3506 548.0
68.4174 494.0
68.4843 514.0
68.5511 509.0
68.618 509.0
68.6848 492.0
68.7517 526.0
68.8185 480.0
68.8853 512.0
68.9522 558.0
69.019 500.0
69.0859 503.0
69.1527 512.0
69.2196 443.0
69.2864 487.0
69.3533 478.0
69.4201 507.0
69.487 501.0
69.5538 474.0
69.6206 489.0
69.6875 517.0
69.7543 505.0
69.8212 514.0
69.888 497.0
69.9549 517.0
70.0217 541.0
70.0886 537.0
70.1554 526.0
70.2222 544.0
70.2891 552.0
70.3559 523.0
70.4228 521.0
70.4896 501.0
70.5565 567.0
70.6233 523.0
70.6902 524.0
70.757 551.0
70.8239 503.0
70.8907 531.0
70.9575 491.0
71.0244 477.0
71.0912 514.0
71.1581 494.0
71.2249 450.0
71.2918 503.0
71.3586 521.0
71.4255 511.0
71.4923 507.0
71.5592 469.0
71.626 465.0
71.6928 465.0
71.7597 504.0
71.8265 510.0
71.8934 483.0
71.9602 447.0
72.0271 479.0
72.0939 505.0
72.1608 480.0
72.2276 469.0
72.2944 493.0
72.3613 479.0
72.4281 423.0
72.495 480.0
72.5618 475.0
72.6287 440.0
72.6955 479.0
72.7624 482.0
72.8292 458.0
72.8961 495.0
72.9629 501.0
73.0297 498.0
73.0966 487.0
73.1634 446.0
73.2303 463.0
73.2971 446.0
73.364 487.0
73.4308 434.0
73.4977 454.0
73.5645 410.0
73.6313 465.0
73.6982 446.0
73.765 430.0
73.8319 451.0
73.8987 447.0
73.9656 426.0
74.0324 470.0
74.0993 444.0
74.1661 430.0
74.233 399.0
74.2998 416.0
74.3666 426.0
74.4335 436.0
74.5003 459.0
74.5672 436.0
74.634 418.0
74.7009 456.0
74.7677 464.0
74.8346 439.0
74.9014 459.0
74.9683 408.0
75.0351 423.0
75.1019 444.0
75.1688 401.0
75.2356 471.0
75.3025 426.0
75.3693 395.0
75.4362 438.0
75.503 440.0
75.5699 386.0
75.6367 453.0
75.7035 449.0
75.7704 460.0
75.8372 462.0
75.9041 439.0
75.9709 433.0
76.0378 462.0
76.1046 410.0
76.1715 447.0
76.2383 425.0
76.3052 446.0
76.372 441.0
76.4388 432.0
76.5057 398.0
76.5725 428.0
76.6394 410.0
76.7062 401.0
76.7731 409.0
76.8399 402.0
76.9068 420.0
76.9736 440.0
77.0404 386.0
77.1073 419.0
77.1741 403.0
77.241 432.0
77.3078 392.0
77.3747 418.0
77.4415 393.0
77.5084 404.0
77.5752 372.0
77.6421 413.0
77.7089 448.0
77.7757 428.0
77.8426 403.0
77.9094 403.0
77.9763 416.0
78.0431 362.0
78.11 392.0
78.1768 358.0
78.2437 381.0
78.3105 395.0
78.3773 394.0
78.4442 391.0
78.511 348.0
78.5779 389.0
78.6447 387.0
78.7116 394.0
78.7784 401.0
78.8453 414.0
78.9121 396.0
78.979 406.0
79.0458 394.0
79.1126 387.0
79.1795 365.0
79.2463 375.0
79.3132 423.0
79.38 384.0
79.4469 394.0
79.5137 389.0
79.5806 386.0
79.6474 357.0
79.7143 360.0
79.7811 366.0
79.8479 381.0
79.9148 385.0
79.9816 329.0
80.0485 356.0
80.1153 377.0
80.1822 368.0
80.249 366.0
80.3159 363.0
80.3827 348.0
80.4495 347.0
80.5164 385.0
80.5832 355.0
80.6501 356.0
80.7169 375.0
80.7838 396.0
80.8506 360.0
80.9175 364.0
80.9843 375.0
81.0512 377.0
81.118 372.0
81.1848 360.0
81.2517 304.0
81.3185 352.0
81.3854 333.0
81.4522 371.0
81.5191 360.0
81.5859 354.0
81.6528 330.0
81.7196 323.0
81.7864 356.0
81.8533 375.0
81.9201 318.0
81.987 314.0
82.0538 336.0
82.1207 339.0
82.1875 341.0
82.2544 332.0
82.3212 311.0
82.3881 352.0
82.4549 354.0
82.5217 344.0
82.5886 326.0
82.6554 325.0
82.7223 341.0
82.7891 360.0
82.856 328.0
82.9228 306.0
82.9897 329.0
83.0565 333.0
83.1233 317.0
83.1902 316.0
83.257 298.0
83.3239 329.0
83.3907 302.0
83.4576 320.0
83.5244 309.0
83.5913 320.0
83.6581 300.0
83.725 307.0
83.7918 284.0
83.8586 298.0
83.9255 332.0
83.9923 266.0
84.0592 316.0
84.126 326.0
84.1929 308.0
84.2597 272.0
84.3266 289.0
84.3934 291.0
84.4603 289.0
84.5271 283.0
84.5939 306.0
84.6608 307.0
84.7276 295.0
84.7945 314.0
84.8613 273.0
84.9282 316.0
84.995 262.0
85.0619 317.0
85.1287 291.0
85.1955 291.0
85.2624 302.0
85.3292 306.0
85.3961 258.0
85.4629 303.0
85.5298 316.0
85.5966 286.0
85.6635 316.0
85.7303 306.0
85.7972 319.0
85.864 268.0
85.9308 291.0
85.9977 270.0
86.0645 276.0
86.1314 276.0
86.1982 272.0
86.2651 286.0
86.3319 269.0
86.3988 288.0
86.4656 266.0
86.5324 261.0
86.5993 260.0
86.6661 293.0
86.733 268.0
86.7998 286.0
86.8667 256.0
86.9335 282.0
87.0004 277.0
87.0672 274.0
87.1341 284.0
87.2009 298.0
87.2677 272.0
87.3346 267.0
87.4014 278.0
87.4683 260.0
87.5351 257.0
87.602 260.0
87.6688 270.0
87.7357 264.0
87.8025 271.0
87.8693 311.0
87.9362 287.0
88.003 263.0
88.0699 279.0
88.1367 263.0
88.2036 259.0
88.2704 263.0
88.3373 255.0
88.4041 243.0
88.471 260.0
88.5378 253.0
88.6046 261.0
88.6715 253.0
88.7383 277.0
88.8052 267.0
88.872 261.0
88.9389 255.0
89.0057 271.0
89.0726 233.0
89.1394 262.0
89.2063 306.0
89.2731 246.0
89.3399 276.0
89.4068 242.0
89.4736 240.0
89.5405 237.0
89.6073 230.0
89.6742 245.0
89.741 287.0
89.8079 235.0
89.8747 257.0
89.9415 230.0