File: code/XRD_Analysis/External Sources/Alex_SAPO/20220715_SAPO-34_70_2_220707_precalc.xy
4.98146 1430.0
5.0483 1459.0
5.11515 1399.0
5.18199 1345.0
5.24884 1353.0
5.31568 1379.0
5.38253 1292.0
5.44937 1385.0
5.51622 1313.0
5.58306 1218.0
5.64991 1303.0
5.71675 1189.0
5.7836 1262.0
5.85044 1251.0
5.91729 1158.0
5.98413 1183.0
6.05098 1170.0
6.11782 1062.0
6.18467 1130.0
6.25151 1149.0
6.31836 1113.0
6.3852 1048.0
6.45205 1084.0
6.51889 1113.0
6.58574 1079.0
6.65258 1074.0
6.71943 1064.0
6.78627 1052.0
6.85312 998.0
6.91996 1013.0
6.98681 1019.0
7.05365 988.0
7.1205 941.0
7.18734 1044.0
7.25419 988.0
7.32103 966.0
7.38788 958.0
7.45472 953.0
7.52157 973.0
7.58841 937.0
7.65526 897.0
7.7221 992.0
7.78895 961.0
7.85579 892.0
7.92264 943.0
7.98948 929.0
8.05633 880.0
8.12317 868.0
8.19002 868.0
8.25686 855.0
8.32371 865.0
8.39055 864.0
8.4574 839.0
8.52424 873.0
8.59109 894.0
8.65793 901.0
8.72478 851.0
8.79162 916.0
8.85847 896.0
8.92532 878.0
8.99216 897.0
9.05901 882.0
9.12585 1013.0
9.1927 1200.0
9.25954 1911.0
9.32639 4551.0
9.39323 14097.0
9.46008 18645.0
9.52692 4978.0
9.59377 1648.0
9.66061 1258.0
9.72746 1109.0
9.7943 1043.0
9.86115 972.0
9.92799 996.0
9.99484 916.0
10.0617 891.0
10.1285 879.0
10.1954 857.0
10.2622 834.0
10.3291 775.0
10.3959 820.0
10.4628 797.0
10.5296 808.0
10.5964 813.0
10.6633 774.0
10.7301 785.0
10.797 806.0
10.8638 762.0
10.9307 727.0
10.9975 757.0
11.0644 762.0
11.1312 754.0
11.198 785.0
11.2649 766.0
11.3317 788.0
11.3986 743.0
11.4654 794.0
11.5323 725.0
11.5991 729.0
11.666 736.0
11.7328 722.0
11.7997 719.0
11.8665 723.0
11.9333 742.0
12.0002 819.0
12.067 709.0
12.1339 771.0
12.2007 722.0
12.2676 768.0
12.3344 742.0
12.4013 761.0
12.4681 732.0
12.5349 784.0
12.6018 942.0
12.6686 1332.0
12.7355 3085.0
12.8023 3490.0
12.8692 1260.0
12.936 821.0
13.0029 785.0
13.0697 748.0
13.1366 776.0
13.2034 736.0
13.2702 690.0
13.3371 712.0
13.4039 634.0
13.4708 645.0
13.5376 617.0
13.6045 612.0
13.6713 672.0
13.7382 656.0
13.805 763.0
13.8719 1118.0
13.9387 1537.0
14.0055 1587.0
14.0724 1123.0
14.1392 841.0
14.2061 808.0
14.2729 782.0
14.3398 758.0
14.4066 781.0
14.4735 778.0
14.5403 748.0
14.6071 740.0
14.674 721.0
14.7408 787.0
14.8077 766.0
14.8745 779.0
14.9414 840.0
15.0082 766.0
15.0751 784.0
15.1419 756.0
15.2088 815.0
15.2756 822.0
15.3424 816.0
15.4093 826.0
15.4761 794.0
15.543 861.0
15.6098 932.0
15.6767 937.0
15.7435 1157.0
15.8104 2026.0
15.8772 6553.0
15.944 10983.0
16.0109 4372.0
16.0777 1422.0
16.1446 1080.0
16.2114 1060.0
16.2783 1087.0
16.3451 1098.0
16.412 1215.0
16.4788 1209.0
16.5457 1207.0
16.6125 1343.0
16.6793 1245.0
16.7462 1478.0
16.813 1401.0
16.8799 1428.0
16.9467 1442.0
17.0136 1377.0
17.0804 1391.0
17.1473 1392.0
17.2141 1267.0
17.2809 1321.0
17.3478 1221.0
17.4146 1239.0
17.4815 1170.0
17.5483 1147.0
17.6152 1185.0
17.682 1307.0
17.7489 1447.0
17.8157 2033.0
17.8826 2486.0
17.9494 2292.0
18.0162 1466.0
18.0831 1169.0
18.1499 1052.0
18.2168 1037.0
18.2836 937.0
18.3505 965.0
18.4173 925.0
18.4842 1032.0
18.551 941.0
18.6179 912.0
18.6847 923.0
18.7515 990.0
18.8184 964.0
18.8852 1198.0
18.9521 1407.0
19.0189 1247.0
19.0858 1022.0
19.1526 1009.0
19.2195 1006.0
19.2863 1004.0
19.3531 1131.0
19.42 1084.0
19.4868 1198.0
19.5537 1279.0
19.6205 1272.0
19.6874 1359.0
19.7542 1412.0
19.8211 1462.0
19.8879 1464.0
19.9548 1424.0
20.0216 1551.0
20.0884 1705.0
20.1553 1738.0
20.2221 1776.0
20.289 2119.0
20.3558 3475.0
20.4227 10411.0
20.4895 17829.0
20.5564 11045.0
20.6232 4288.0
20.69 2551.0
20.7569 2325.0
20.8237 2262.0
20.8906 2135.0
20.9574 2022.0
21.0243 2052.0
21.0911 2108.0
21.158 2004.0
21.2248 1976.0
21.2917 1727.0
21.3585 1486.0
21.4253 1239.0
21.4922 1007.0
21.559 882.0
21.6259 793.0
21.6927 694.0
21.7596 717.0
21.8264 732.0
21.8933 842.0
21.9601 1049.0
22.0269 1078.0
22.0938 1062.0
22.1606 896.0
22.2275 973.0
22.2943 993.0
22.3612 849.0
22.428 782.0
22.4949 823.0
22.5617 822.0
22.6286 845.0
22.6954 816.0
22.7622 817.0
22.8291 913.0
22.8959 1146.0
22.9628 1810.0
23.0296 2165.0
23.0965 1396.0
23.1633 1016.0
23.2302 923.0
23.297 969.0
23.3639 961.0
23.4307 1010.0
23.4975 1024.0
23.5644 998.0
23.6312 1058.0
23.6981 1114.0
23.7649 1187.0
23.8318 1207.0
23.8986 1238.0
23.9655 1170.0
24.0323 1205.0
24.0991 1309.0
24.166 1256.0
24.2328 1203.0
24.2997 1320.0
24.3665 1325.0
24.4334 1365.0
24.5002 1333.0
24.5671 1351.0
24.6339 1444.0
24.7008 1428.0
24.7676 1423.0
24.8344 1531.0
24.9013 1874.0
24.9681 2148.0
25.035 2814.0
25.1018 3429.0
25.1687 3073.0
25.2355 2138.0
25.3024 1718.0
25.3692 1554.0
25.436 1518.0
25.5029 1523.0
25.5697 1532.0
25.6366 1899.0
25.7034 3590.0
25.7703 4752.0
25.8371 3458.0
25.904 1804.0
25.9708 1410.0
26.0377 1299.0
26.1045 1267.0
26.1713 1173.0
26.2382 1191.0
26.305 1106.0
26.3719 1133.0
26.4387 1045.0
26.5056 1066.0
26.5724 949.0
26.6393 998.0
26.7061 961.0
26.773 966.0
26.8398 891.0
26.9066 854.0
26.9735 865.0
27.0403 798.0
27.1072 764.0
27.174 805.0
27.2409 773.0
27.3077 772.0
27.3746 865.0
27.4414 1134.0
27.5082 1510.0
27.5751 1285.0
27.6419 872.0
27.7088 732.0
27.7756 725.0
27.8425 752.0
27.9093 776.0
27.9762 821.0
28.043 988.0
28.1099 1084.0
28.1767 1058.0
28.2435 1119.0
28.3104 1089.0
28.3772 949.0
28.4441 849.0
28.5109 747.0
28.5778 729.0
28.6446 721.0
28.7115 686.0
28.7783 685.0
28.8451 752.0
28.912 753.0
28.9788 735.0
29.0457 783.0
29.1125 781.0
29.1794 859.0
29.2462 877.0
29.3131 1080.0
29.3799 1599.0
29.4468 1731.0
29.5136 1464.0
29.5804 1207.0
29.6473 1110.0
29.7141 1109.0
29.781 1230.0
29.8478 1366.0
29.9147 1491.0
29.9815 1559.0
30.0484 1736.0
30.1152 1884.0
30.182 2090.0
30.2489 2413.0
30.3157 2861.0
30.3826 3955.0
30.4494 5681.0
30.5163 5130.0
30.5831 3787.0
30.65 3018.0
30.7168 2808.0
30.7837 2775.0
30.8505 2817.0
30.9173 3347.0
30.9842 3645.0
31.051 3978.0
31.1179 4055.0
31.1847 3776.0
31.2516 2932.0
31.3184 2103.0
31.3853 1695.0
31.4521 1575.0
31.519 1679.0
31.5858 1767.0
31.6526 1574.0
31.7195 1407.0
31.7863 1274.0
31.8532 1131.0
31.92 1150.0
31.9869 1054.0
32.0537 1080.0
32.1206 1080.0
32.1874 1292.0
32.2542 1406.0
32.3211 1247.0
32.3879 1059.0
32.4548 922.0
32.5216 900.0
32.5885 865.0
32.6553 812.0
32.7222 804.0
32.789 790.0
32.8559 762.0
32.9227 752.0
32.9895 706.0
33.0564 793.0
33.1232 833.0
33.1901 904.0
33.2569 837.0
33.3238 771.0
33.3906 747.0
33.4575 771.0
33.5243 775.0
33.5911 770.0
33.658 929.0
33.7248 814.0
33.7917 786.0
33.8585 767.0
33.9254 739.0
33.9922 708.0
34.0591 715.0
34.1259 785.0
34.1928 923.0
34.2596 1194.0
34.3264 1424.0
34.3933 1260.0
34.4601 1028.0
34.527 844.0
34.5938 701.0
34.6607 652.0
34.7275 609.0
34.7944 681.0
34.8612 681.0
34.928 682.0
34.9949 578.0
35.0617 567.0
35.1286 578.0
35.1954 538.0
35.2623 527.0
35.3291 504.0
35.396 560.0
35.4628 558.0
35.5297 502.0
35.5965 501.0
35.6633 552.0
35.7302 520.0
35.797 594.0
35.8639 642.0
35.9307 691.0
35.9976 740.0
36.0644 805.0
36.1313 910.0
36.1981 944.0
36.265 881.0
36.3318 707.0
36.3986 543.0
36.4655 519.0
36.5323 439.0
36.5992 459.0
36.666 453.0
36.7329 450.0
36.7997 435.0
36.8666 446.0
36.9334 447.0
37.0002 419.0
37.0671 456.0
37.1339 416.0
37.2008 443.0
37.2676 433.0
37.3345 442.0
37.4013 456.0
37.4682 474.0
37.535 448.0
37.6019 408.0
37.6687 464.0
37.7355 453.0
37.8024 418.0
37.8692 476.0
37.9361 494.0
38.0029 506.0
38.0698 574.0
38.1366 539.0
38.2035 494.0
38.2703 475.0
38.3371 464.0
38.404 481.0
38.4708 511.0
38.5377 631.0
38.6045 670.0
38.6714 698.0
38.7382 692.0
38.8051 686.0
38.8719 630.0
38.9388 647.0
39.0056 717.0
39.0724 659.0
39.1393 686.0
39.2061 645.0
39.273 710.0
39.3398 635.0
39.4067 688.0
39.4735 732.0
39.5404 846.0
39.6072 880.0
39.6741 723.0
39.7409 558.0
39.8077 517.0
39.8746 535.0
39.9414 485.0
40.0083 477.0
40.0751 431.0
40.142 463.0
40.2088 487.0
40.2757 426.0
40.3425 430.0
40.4093 460.0
40.4762 407.0
40.543 401.0
40.6099 420.0
40.6767 432.0
40.7436 449.0
40.8104 471.0
40.8773 438.0
40.9441 394.0
41.011 457.0
41.0778 398.0
41.1446 395.0
41.2115 406.0
41.2783 440.0
41.3452 444.0
41.412 413.0
41.4789 409.0
41.5457 475.0
41.6126 430.0
41.6794 449.0
41.7462 476.0
41.8131 512.0
41.8799 453.0
41.9468 438.0
42.0136 424.0
42.0805 412.0
42.1473 400.0
42.2142 388.0
42.281 393.0
42.3479 416.0
42.4147 407.0
42.4815 441.0
42.5484 412.0
42.6152 451.0
42.6821 522.0
42.7489 502.0
42.8158 597.0
42.8826 723.0
42.9495 828.0
43.0163 888.0
43.0831 923.0
43.15 975.0
43.2168 978.0
43.2837 950.0
43.3505 940.0
43.4174 716.0
43.4842 731.0
43.5511 618.0
43.6179 596.0
43.6848 545.0
43.7516 553.0
43.8184 539.0
43.8853 501.0
43.9521 472.0
44.019 450.0
44.0858 474.0
44.1527 451.0
44.2195 430.0
44.2864 458.0
44.3532 440.0
44.4201 432.0
44.4869 462.0
44.5537 439.0
44.6206 425.0
44.6874 402.0
44.7543 367.0
44.8211 387.0
44.888 402.0
44.9548 404.0
45.0217 436.0
45.0885 446.0
45.1553 411.0
45.2222 407.0
45.289 395.0
45.3559 371.0
45.4227 342.0
45.4896 348.0
45.5564 352.0
45.6233 353.0
45.6901 371.0
45.757 356.0
45.8238 355.0
45.8906 389.0
45.9575 387.0
46.0243 364.0
46.0912 354.0
46.158 417.0
46.2249 399.0
46.2917 379.0
46.3586 416.0
46.4254 382.0
46.4922 482.0
46.5591 454.0
46.6259 473.0
46.6928 476.0
46.7596 428.0
46.8265 461.0
46.8933 399.0
46.9602 449.0
47.027 451.0
47.0939 456.0
47.1607 494.0
47.2275 534.0
47.2944 524.0
47.3612 594.0
47.4281 748.0
47.4949 766.0
47.5618 744.0
47.6286 693.0
47.6955 569.0
47.7623 504.0
47.8291 440.0
47.896 454.0
47.9628 426.0
48.0297 429.0
48.0965 447.0
48.1634 429.0
48.2302 424.0
48.2971 473.0
48.3639 400.0
48.4308 455.0
48.4976 488.0
48.5644 544.0
48.6313 708.0
48.6981 767.0
48.765 1020.0
48.8318 1401.0
48.8987 1882.0
48.9655 1691.0
49.0324 1380.0
49.0992 948.0
49.1661 666.0
49.2329 559.0
49.2997 573.0
49.3666 553.0
49.4334 560.0
49.5003 621.0
49.5671 611.0
49.634 614.0
49.7008 614.0
49.7677 623.0
49.8345 621.0
49.9013 677.0
49.9682 772.0
50.035 790.0
50.1019 794.0
50.1687 736.0
50.2356 669.0
50.3024 651.0
50.3693 621.0
50.4361 635.0
50.503 585.0
50.5698 564.0
50.6366 619.0
50.7035 730.0
50.7703 885.0
50.8372 984.0
50.904 1008.0
50.9709 928.0
51.0377 850.0
51.1046 717.0
51.1714 637.0
51.2382 607.0
51.3051 623.0
51.3719 598.0
51.4388 617.0
51.5056 605.0
51.5725 565.0
51.6393 625.0
51.7062 581.0
51.773 500.0
51.8399 489.0
51.9067 490.0
51.9735 481.0
52.0404 465.0
52.1072 458.0
52.1741 460.0
52.2409 407.0
52.3078 419.0
52.3746 447.0
52.4415 447.0
52.5083 428.0
52.5751 418.0
52.642 378.0
52.7088 416.0
52.7757 463.0
52.8425 486.0
52.9094 631.0
52.9762 900.0
53.0431 951.0
53.1099 925.0
53.1768 755.0
53.2436 645.0
53.3104 508.0
53.3773 519.0
53.4441 524.0
53.511 518.0
53.5778 470.0
53.6447 508.0
53.7115 490.0
53.7784 540.0
53.8452 487.0
53.9121 517.0
53.9789 518.0
54.0457 508.0
54.1126 472.0
54.1794 462.0
54.2463 503.0
54.3131 553.0
54.38 600.0
54.4468 644.0
54.5137 651.0
54.5805 580.0
54.6473 565.0
54.7142 525.0
54.781 424.0
54.8479 465.0
54.9147 471.0
54.9816 492.0
55.0484 551.0
55.1153 560.0
55.1821 545.0
55.249 595.0
55.3158 626.0
55.3826 662.0
55.4495 661.0
55.5163 666.0
55.5832 689.0
55.65 849.0
55.7169 837.0
55.7837 813.0
55.8506 776.0
55.9174 732.0
55.9842 644.0
56.0511 606.0
56.1179 659.0
56.1848 647.0
56.2516 582.0
56.3185 574.0
56.3853 518.0
56.4522 441.0
56.519 433.0
56.5859 398.0
56.6527 413.0
56.7195 389.0
56.7864 430.0
56.8532 415.0
56.9201 371.0
56.9869 433.0
57.0538 413.0
57.1206 400.0
57.1875 412.0
57.2543 353.0
57.3212 371.0
57.388 382.0
57.4548 377.0
57.5217 376.0
57.5885 353.0
57.6554 324.0
57.7222 332.0
57.7891 337.0
57.8559 340.0
57.9228 345.0
57.9896 336.0
58.0564 332.0
58.1233 347.0
58.1901 344.0
58.257 383.0
58.3238 329.0
58.3907 339.0
58.4575 368.0
58.5244 388.0
58.5912 373.0
58.6581 418.0
58.7249 383.0
58.7917 375.0
58.8586 362.0
58.9254 333.0
58.9923 367.0
59.0591 346.0
59.126 375.0
59.1928 385.0
59.2597 432.0
59.3265 514.0
59.3933 631.0
59.4602 724.0
59.527 667.0
59.5939 589.0
59.6607 544.0
59.7276 489.0
59.7944 432.0
59.8613 417.0
59.9281 366.0
59.995 392.0
60.0618 401.0
60.1286 364.0
60.1955 408.0
60.2623 383.0
60.3292 427.0
60.396 415.0
60.4629 453.0
60.5297 438.0
60.5966 495.0
60.6634 548.0
60.7302 602.0
60.7971 645.0
60.8639 573.0
60.9308 543.0
60.9976 528.0
61.0645 551.0
61.1313 572.0
61.1982 646.0
61.265 692.0
61.3319 591.0
61.3987 555.0
61.4655 504.0
61.5324 496.0
61.5992 455.0
61.6661 430.0
61.7329 425.0
61.7998 399.0
61.8666 402.0
61.9335 431.0
62.0003 420.0
62.0672 436.0
62.134 477.0
62.2008 454.0
62.2677 529.0
62.3345 473.0
62.4014 454.0
62.4682 460.0
62.5351 489.0
62.6019 463.0
62.6688 442.0
62.7356 463.0
62.8024 428.0
62.8693 454.0
62.9361 426.0
63.003 410.0
63.0698 449.0
63.1367 459.0
63.2035 425.0
63.2704 473.0
63.3372 424.0
63.4041 448.0
63.4709 459.0
63.5377 428.0
63.6046 422.0
63.6714 416.0
63.7383 407.0
63.8051 387.0
63.872 400.0
63.9388 389.0
64.0057 456.0
64.0725 387.0
64.1393 417.0
64.2062 375.0
64.273 410.0
64.3399 431.0
64.4067 406.0
64.4736 414.0
64.5404 376.0
64.6073 450.0
64.6741 443.0
64.741 426.0
64.8078 392.0
64.8746 435.0
64.9415 393.0
65.0083 371.0
65.0752 422.0
65.142 384.0
65.2089 399.0
65.2757 365.0
65.3426 382.0
65.4094 384.0
65.4762 347.0
65.5431 393.0
65.6099 365.0
65.6768 369.0
65.7436 403.0
65.8105 447.0
65.8773 536.0
65.9442 556.0
66.011 638.0
66.0779 582.0
66.1447 622.0
66.2115 591.0
66.2784 589.0
66.3452 590.0
66.4121 635.0
66.4789 603.0
66.5458 641.0
66.6126 596.0
66.6795 644.0
66.7463 619.0
66.8132 613.0
66.88 619.0
66.9468 555.0
67.0137 615.0
67.0805 590.0
67.1474 586.0
67.2142 638.0
67.2811 578.0
67.3479 568.0
67.4148 540.0
67.4816 497.0
67.5484 477.0
67.6153 467.0
67.6821 435.0
67.749 379.0
67.8158 383.0
67.8827 387.0
67.9495 392.0
68.0164 363.0
68.0832 387.0
68.1501 380.0
68.2169 365.0
68.2837 354.0
68.3506 375.0
68.4174 368.0
68.4843 335.0
68.5511 357.0
68.618 370.0
68.6848 375.0
68.7517 385.0
68.8185 412.0
68.8853 428.0
68.9522 505.0
69.019 482.0
69.0859 488.0
69.1527 523.0
69.2196 493.0
69.2864 501.0
69.3533 434.0
69.4201 443.0
69.487 492.0
69.5538 446.0
69.6206 469.0
69.6875 496.0
69.7543 500.0
69.8212 557.0
69.888 568.0
69.9549 611.0
70.0217 567.0
70.0886 639.0
70.1554 606.0
70.2222 629.0
70.2891 613.0
70.3559 584.0
70.4228 572.0
70.4896 606.0
70.5565 713.0
70.6233 709.0
70.6902 602.0
70.757 647.0
70.8239 612.0
70.8907 649.0
70.9575 686.0
71.0244 642.0
71.0912 617.0
71.1581 616.0
71.2249 600.0
71.2918 567.0
71.3586 549.0
71.4255 518.0
71.4923 467.0
71.5592 490.0
71.626 439.0
71.6928 462.0
71.7597 411.0
71.8265 404.0
71.8934 450.0
71.9602 447.0
72.0271 545.0
72.0939 542.0
72.1608 538.0
72.2276 561.0
72.2944 536.0
72.3613 494.0
72.4281 480.0
72.495 456.0
72.5618 450.0
72.6287 461.0
72.6955 442.0
72.7624 435.0
72.8292 352.0
72.8961 398.0
72.9629 396.0
73.0297 340.0
73.0966 337.0
73.1634 365.0
73.2303 352.0
73.2971 328.0
73.364 322.0
73.4308 328.0
73.4977 313.0
73.5645 371.0
73.6313 360.0
73.6982 372.0
73.765 400.0
73.8319 358.0
73.8987 420.0
73.9656 395.0
74.0324 415.0
74.0993 394.0
74.1661 398.0
74.233 345.0
74.2998 336.0
74.3666 371.0
74.4335 386.0
74.5003 365.0
74.5672 413.0
74.634 370.0
74.7009 406.0
74.7677 372.0
74.8346 414.0
74.9014 429.0
74.9683 489.0
75.0351 443.0
75.1019 444.0
75.1688 444.0
75.2356 454.0
75.3025 454.0
75.3693 386.0
75.4362 406.0
75.503 386.0
75.5699 409.0
75.6367 395.0
75.7035 395.0
75.7704 404.0
75.8372 406.0
75.9041 379.0
75.9709 370.0
76.0378 384.0
76.1046 353.0
76.1715 377.0
76.2383 382.0
76.3052 403.0
76.372 330.0
76.4388 306.0
76.5057 332.0
76.5725 305.0
76.6394 353.0
76.7062 298.0
76.7731 324.0
76.8399 324.0
76.9068 350.0
76.9736 386.0
77.0404 348.0
77.1073 341.0
77.1741 371.0
77.241 385.0
77.3078 387.0
77.3747 341.0
77.4415 349.0
77.5084 365.0
77.5752 328.0
77.6421 313.0
77.7089 340.0
77.7757 314.0
77.8426 344.0
77.9094 357.0
77.9763 362.0
78.0431 318.0
78.11 352.0
78.1768 318.0
78.2437 317.0
78.3105 313.0
78.3773 320.0
78.4442 301.0
78.511 301.0
78.5779 289.0
78.6447 305.0
78.7116 329.0
78.7784 288.0
78.8453 309.0
78.9121 326.0
78.979 300.0
79.0458 306.0
79.1126 313.0
79.1795 322.0
79.2463 335.0
79.3132 328.0
79.38 298.0
79.4469 326.0
79.5137 325.0
79.5806 349.0
79.6474 345.0
79.7143 300.0
79.7811 336.0
79.8479 323.0
79.9148 339.0
79.9816 320.0
80.0485 299.0
80.1153 336.0
80.1822 317.0
80.249 349.0
80.3159 349.0
80.3827 376.0
80.4495 337.0
80.5164 380.0
80.5832 445.0
80.6501 398.0
80.7169 414.0
80.7838 383.0
80.8506 394.0
80.9175 385.0
80.9843 366.0
81.0512 367.0
81.118 346.0
81.1848 326.0
81.2517 325.0
81.3185 303.0
81.3854 305.0
81.4522 323.0
81.5191 309.0
81.5859 326.0
81.6528 303.0
81.7196 348.0
81.7864 330.0
81.8533 349.0
81.9201 333.0
81.987 295.0
82.0538 289.0
82.1207 297.0
82.1875 294.0
82.2544 307.0
82.3212 298.0
82.3881 280.0
82.4549 280.0
82.5217 288.0
82.5886 326.0
82.6554 284.0
82.7223 304.0
82.7891 278.0
82.856 297.0
82.9228 305.0
82.9897 338.0
83.0565 328.0
83.1233 311.0
83.1902 300.0
83.257 295.0
83.3239 288.0
83.3907 272.0
83.4576 292.0
83.5244 270.0
83.5913 304.0
83.6581 304.0
83.725 328.0
83.7918 337.0
83.8586 321.0
83.9255 324.0
83.9923 340.0
84.0592 305.0
84.126 300.0
84.1929 301.0
84.2597 285.0
84.3266 320.0
84.3934 276.0
84.4603 280.0
84.5271 302.0
84.5939 254.0
84.6608 283.0
84.7276 276.0
84.7945 260.0
84.8613 247.0
84.9282 253.0
84.995 242.0
85.0619 233.0
85.1287 220.0
85.1955 208.0
85.2624 245.0
85.3292 256.0
85.3961 261.0
85.4629 237.0
85.5298 246.0
85.5966 235.0
85.6635 250.0
85.7303 247.0
85.7972 225.0
85.864 235.0
85.9308 217.0
85.9977 254.0
86.0645 246.0
86.1314 223.0
86.1982 225.0
86.2651 257.0
86.3319 228.0
86.3988 233.0
86.4656 233.0
86.5324 241.0
86.5993 235.0
86.6661 229.0
86.733 242.0
86.7998 220.0
86.8667 252.0
86.9335 270.0
87.0004 237.0
87.0672 262.0
87.1341 267.0
87.2009 269.0
87.2677 275.0
87.3346 250.0
87.4014 237.0
87.4683 231.0
87.5351 235.0
87.602 233.0
87.6688 233.0
87.7357 243.0
87.8025 228.0
87.8693 233.0
87.9362 221.0
88.003 268.0
88.0699 271.0
88.1367 240.0
88.2036 274.0
88.2704 229.0
88.3373 260.0
88.4041 231.0
88.471 217.0
88.5378 260.0
88.6046 236.0
88.6715 215.0
88.7383 220.0
88.8052 219.0
88.872 224.0
88.9389 228.0
89.0057 224.0
89.0726 223.0
89.1394 211.0
89.2063 195.0
89.2731 200.0
89.3399 225.0
89.4068 200.0
89.4736 216.0
89.5405 231.0
89.6073 200.0
89.6742 214.0
89.741 230.0
89.8079 222.0
89.8747 203.0
89.9415 197.0