File: code/XRD_Analysis/External Sources/Alex_SAPO/20220919_SAPO-18_220908_calc550C_4h.xy
4.98146 1125.0
5.0483 1122.0
5.11515 1126.0
5.18199 1193.0
5.24884 1083.0
5.31568 1122.0
5.38253 1026.0
5.44937 1003.0
5.51622 1052.0
5.58306 946.0
5.64991 1001.0
5.71675 974.0
5.7836 950.0
5.85044 963.0
5.91729 944.0
5.98413 919.0
6.05098 933.0
6.11782 882.0
6.18467 848.0
6.25151 895.0
6.31836 884.0
6.3852 825.0
6.45205 862.0
6.51889 833.0
6.58574 836.0
6.65258 859.0
6.71943 802.0
6.78627 805.0
6.85312 766.0
6.91996 797.0
6.98681 849.0
7.05365 773.0
7.1205 748.0
7.18734 793.0
7.25419 772.0
7.32103 730.0
7.38788 819.0
7.45472 732.0
7.52157 728.0
7.58841 735.0
7.65526 696.0
7.7221 741.0
7.78895 759.0
7.85579 693.0
7.92264 669.0
7.98948 694.0
8.05633 694.0
8.12317 683.0
8.19002 697.0
8.25686 707.0
8.32371 714.0
8.39055 695.0
8.4574 656.0
8.52424 638.0
8.59109 701.0
8.65793 667.0
8.72478 704.0
8.79162 672.0
8.85847 681.0
8.92532 670.0
8.99216 740.0
9.05901 741.0
9.12585 860.0
9.1927 918.0
9.25954 1120.0
9.32639 1586.0
9.39323 2621.0
9.46008 4778.0
9.52692 7360.0
9.59377 6800.0
9.66061 4374.0
9.72746 2523.0
9.7943 1523.0
9.86115 1127.0
9.92799 908.0
9.99484 816.0
10.0617 767.0
10.1285 741.0
10.1954 743.0
10.2622 720.0
10.3291 743.0
10.3959 778.0
10.4628 937.0
10.5296 1160.0
10.5964 1503.0
10.6633 1757.0
10.7301 1522.0
10.797 1101.0
10.8638 869.0
10.9307 769.0
10.9975 722.0
11.0644 659.0
11.1312 639.0
11.198 586.0
11.2649 580.0
11.3317 568.0
11.3986 623.0
11.4654 566.0
11.5323 553.0
11.5991 526.0
11.666 542.0
11.7328 582.0
11.7997 564.0
11.8665 560.0
11.9333 504.0
12.0002 529.0
12.067 542.0
12.1339 550.0
12.2007 502.0
12.2676 535.0
12.3344 571.0
12.4013 527.0
12.4681 569.0
12.5349 560.0
12.6018 579.0
12.6686 605.0
12.7355 753.0
12.8023 975.0
12.8692 1372.0
12.936 1751.0
13.0029 1497.0
13.0697 1049.0
13.1366 752.0
13.2034 617.0
13.2702 630.0
13.3371 636.0
13.4039 704.0
13.4708 859.0
13.5376 969.0
13.6045 984.0
13.6713 807.0
13.7382 667.0
13.805 560.0
13.8719 538.0
13.9387 588.0
14.0055 643.0
14.0724 574.0
14.1392 538.0
14.2061 500.0
14.2729 476.0
14.3398 466.0
14.4066 509.0
14.4735 481.0
14.5403 480.0
14.6071 457.0
14.674 505.0
14.7408 582.0
14.8077 522.0
14.8745 547.0
14.9414 487.0
15.0082 521.0
15.0751 489.0
15.1419 503.0
15.2088 524.0
15.2756 508.0
15.3424 486.0
15.4093 521.0
15.4761 532.0
15.543 519.0
15.6098 504.0
15.6767 550.0
15.7435 550.0
15.8104 576.0
15.8772 670.0
15.944 787.0
16.0109 1017.0
16.0777 1345.0
16.1446 1447.0
16.2114 1428.0
16.2783 1149.0
16.3451 882.0
16.412 746.0
16.4788 740.0
16.5457 631.0
16.6125 644.0
16.6793 703.0
16.7462 781.0
16.813 928.0
16.8799 1269.0
16.9467 1843.0
17.0136 2461.0
17.0804 2276.0
17.1473 1768.0
17.2141 1614.0
17.2809 1776.0
17.3478 1665.0
17.4146 1526.0
17.4815 1260.0
17.5483 997.0
17.6152 864.0
17.682 790.0
17.7489 721.0
17.8157 639.0
17.8826 610.0
17.9494 565.0
18.0162 575.0
18.0831 607.0
18.1499 597.0
18.2168 581.0
18.2836 580.0
18.3505 583.0
18.4173 560.0
18.4842 583.0
18.551 585.0
18.6179 540.0
18.6847 535.0
18.7515 582.0
18.8184 599.0
18.8852 605.0
18.9521 678.0
19.0189 818.0
19.0858 944.0
19.1526 1058.0
19.2195 837.0
19.2863 746.0
19.3531 707.0
19.42 670.0
19.4868 673.0
19.5537 690.0
19.6205 855.0
19.6874 937.0
19.7542 976.0
19.8211 901.0
19.8879 884.0
19.9548 817.0
20.0216 886.0
20.0884 1126.0
20.1553 1168.0
20.2221 1183.0
20.289 1087.0
20.3558 984.0
20.4227 942.0
20.4895 1054.0
20.5564 1172.0
20.6232 1663.0
20.69 2071.0
20.7569 2009.0
20.8237 1550.0
20.8906 1203.0
20.9574 969.0
21.0243 956.0
21.0911 997.0
21.158 1059.0
21.2248 1179.0
21.2917 1357.0
21.3585 1652.0
21.4253 1918.0
21.4922 2141.0
21.559 1815.0
21.6259 1537.0
21.6927 1438.0
21.7596 1673.0
21.8264 1469.0
21.8933 1000.0
21.9601 798.0
22.0269 741.0
22.0938 794.0
22.1606 759.0
22.2275 750.0
22.2943 760.0
22.3612 734.0
22.428 693.0
22.4949 759.0
22.5617 847.0
22.6286 939.0
22.6954 949.0
22.7622 850.0
22.8291 798.0
22.8959 800.0
22.9628 849.0
23.0296 826.0
23.0965 920.0
23.1633 1002.0
23.2302 1094.0
23.297 1075.0
23.3639 970.0
23.4307 933.0
23.4975 850.0
23.5644 915.0
23.6312 944.0
23.6981 1053.0
23.7649 1180.0
23.8318 1368.0
23.8986 1798.0
23.9655 2277.0
24.0323 2495.0
24.0991 2570.0
24.166 2261.0
24.2328 1845.0
24.2997 1412.0
24.3665 1179.0
24.4334 1089.0
24.5002 1015.0
24.5671 877.0
24.6339 939.0
24.7008 875.0
24.7676 857.0
24.8344 870.0
24.9013 875.0
24.9681 889.0
25.035 863.0
25.1018 930.0
25.1687 922.0
25.2355 1012.0
25.3024 1009.0
25.3692 963.0
25.436 1058.0
25.5029 1035.0
25.5697 1015.0
25.6366 1031.0
25.7034 1079.0
25.7703 1031.0
25.8371 1138.0
25.904 1303.0
25.9708 1464.0
26.0377 1630.0
26.1045 1653.0
26.1713 1584.0
26.2382 1441.0
26.305 1391.0
26.3719 1463.0
26.4387 1705.0
26.5056 1719.0
26.5724 1526.0
26.6393 1304.0
26.7061 1088.0
26.773 1035.0
26.8398 978.0
26.9066 929.0
26.9735 839.0
27.0403 922.0
27.1072 949.0
27.174 851.0
27.2409 934.0
27.3077 894.0
27.3746 865.0
27.4414 910.0
27.5082 922.0
27.5751 928.0
27.6419 937.0
27.7088 995.0
27.7756 1112.0
27.8425 1137.0
27.9093 1392.0
27.9762 1350.0
28.043 1505.0
28.1099 1584.0
28.1767 1583.0
28.2435 1413.0
28.3104 1354.0
28.3772 1173.0
28.4441 1057.0
28.5109 964.0
28.5778 942.0
28.6446 944.0
28.7115 909.0
28.7783 910.0
28.8451 897.0
28.912 856.0
28.9788 856.0
29.0457 850.0
29.1125 838.0
29.1794 850.0
29.2462 914.0
29.3131 877.0
29.3799 1017.0
29.4468 993.0
29.5136 1043.0
29.5804 1142.0
29.6473 1131.0
29.7141 1068.0
29.781 1145.0
29.8478 1189.0
29.9147 1073.0
29.9815 1125.0
30.0484 1350.0
30.1152 1377.0
30.182 1412.0
30.2489 1339.0
30.3157 1230.0
30.3826 1191.0
30.4494 1242.0
30.5163 1288.0
30.5831 1384.0
30.65 1394.0
30.7168 1511.0
30.7837 1438.0
30.8505 1379.0
30.9173 1536.0
30.9842 1571.0
31.051 1708.0
31.1179 2030.0
31.1847 2229.0
31.2516 2423.0
31.3184 2339.0
31.3853 2043.0
31.4521 1602.0
31.519 1431.0
31.5858 1188.0
31.6526 1125.0
31.7195 1062.0
31.7863 1086.0
31.8532 1118.0
31.92 1211.0
31.9869 1084.0
32.0537 1036.0
32.1206 1001.0
32.1874 988.0
32.2542 1100.0
32.3211 1168.0
32.3879 1241.0
32.4548 1293.0
32.5216 1271.0
32.5885 1193.0
32.6553 1130.0
32.7222 1052.0
32.789 1154.0
32.8559 1088.0
32.9227 1146.0
32.9895 1212.0
33.0564 1090.0
33.1232 1119.0
33.1901 1004.0
33.2569 946.0
33.3238 860.0
33.3906 774.0
33.4575 756.0
33.5243 686.0
33.5911 682.0
33.658 666.0
33.7248 668.0
33.7917 700.0
33.8585 644.0
33.9254 654.0
33.9922 651.0
34.0591 645.0
34.1259 588.0
34.1928 604.0
34.2596 557.0
34.3264 576.0
34.3933 598.0
34.4601 625.0
34.527 623.0
34.5938 670.0
34.6607 582.0
34.7275 563.0
34.7944 589.0
34.8612 528.0
34.928 590.0
34.9949 574.0
35.0617 588.0
35.1286 574.0
35.1954 594.0
35.2623 541.0
35.3291 520.0
35.396 532.0
35.4628 571.0
35.5297 603.0
35.5965 541.0
35.6633 522.0
35.7302 569.0
35.797 622.0
35.8639 598.0
35.9307 540.0
35.9976 551.0
36.0644 555.0
36.1313 525.0
36.1981 545.0
36.265 545.0
36.3318 538.0
36.3986 525.0
36.4655 534.0
36.5323 524.0
36.5992 531.0
36.666 528.0
36.7329 480.0
36.7997 549.0
36.8666 475.0
36.9334 488.0
37.0002 456.0
37.0671 425.0
37.1339 446.0
37.2008 449.0
37.2676 426.0
37.3345 442.0
37.4013 457.0
37.4682 445.0
37.535 426.0
37.6019 443.0
37.6687 403.0
37.7355 423.0
37.8024 450.0
37.8692 414.0
37.9361 423.0
38.0029 451.0
38.0698 440.0
38.1366 375.0
38.2035 424.0
38.2703 422.0
38.3371 389.0
38.404 412.0
38.4708 430.0
38.5377 410.0
38.6045 427.0
38.6714 408.0
38.7382 417.0
38.8051 433.0
38.8719 395.0
38.9388 429.0
39.0056 424.0
39.0724 414.0
39.1393 414.0
39.2061 443.0
39.273 460.0
39.3398 431.0
39.4067 502.0
39.4735 478.0
39.5404 481.0
39.6072 460.0
39.6741 462.0
39.7409 412.0
39.8077 490.0
39.8746 456.0
39.9414 434.0
40.0083 406.0
40.0751 449.0
40.142 432.0
40.2088 436.0
40.2757 395.0
40.3425 415.0
40.4093 427.0
40.4762 383.0
40.543 412.0
40.6099 404.0
40.6767 457.0
40.7436 375.0
40.8104 417.0
40.8773 474.0
40.9441 403.0
41.011 458.0
41.0778 419.0
41.1446 472.0
41.2115 435.0
41.2783 444.0
41.3452 438.0
41.412 442.0
41.4789 460.0
41.5457 451.0
41.6126 403.0
41.6794 467.0
41.7462 447.0
41.8131 433.0
41.8799 432.0
41.9468 415.0
42.0136 433.0
42.0805 417.0
42.1473 417.0
42.2142 418.0
42.281 428.0
42.3479 423.0
42.4147 409.0
42.4815 395.0
42.5484 373.0
42.6152 431.0
42.6821 424.0
42.7489 413.0
42.8158 388.0
42.8826 387.0
42.9495 411.0
43.0163 426.0
43.0831 420.0
43.15 426.0
43.2168 402.0
43.2837 466.0
43.3505 433.0
43.4174 457.0
43.4842 460.0
43.5511 440.0
43.6179 489.0
43.6848 436.0
43.7516 430.0
43.8184 395.0
43.8853 426.0
43.9521 427.0
44.019 464.0
44.0858 426.0
44.1527 386.0
44.2195 414.0
44.2864 402.0
44.3532 403.0
44.4201 377.0
44.4869 409.0
44.5537 387.0
44.6206 449.0
44.6874 407.0
44.7543 412.0
44.8211 419.0
44.888 401.0
44.9548 434.0
45.0217 386.0
45.0885 397.0
45.1553 408.0
45.2222 410.0
45.289 406.0
45.3559 379.0
45.4227 402.0
45.4896 389.0
45.5564 408.0
45.6233 409.0
45.6901 353.0
45.757 389.0
45.8238 408.0
45.8906 364.0
45.9575 363.0
46.0243 367.0
46.0912 396.0
46.158 379.0
46.2249 402.0
46.2917 367.0
46.3586 391.0
46.4254 425.0
46.4922 431.0
46.5591 417.0
46.6259 451.0
46.6928 457.0
46.7596 393.0
46.8265 386.0
46.8933 419.0
46.9602 428.0
47.027 417.0
47.0939 387.0
47.1607 395.0
47.2275 378.0
47.2944 375.0
47.3612 358.0
47.4281 381.0
47.4949 408.0
47.5618 385.0
47.6286 419.0
47.6955 379.0
47.7623 378.0
47.8291 351.0
47.896 393.0
47.9628 408.0
48.0297 389.0
48.0965 440.0
48.1634 401.0
48.2302 423.0
48.2971 389.0
48.3639 406.0
48.4308 363.0
48.4976 415.0
48.5644 376.0
48.6313 375.0
48.6981 392.0
48.765 375.0
48.8318 402.0
48.8987 426.0
48.9655 399.0
49.0324 423.0
49.0992 464.0
49.1661 459.0
49.2329 489.0
49.2997 489.0
49.3666 502.0
49.4334 514.0
49.5003 511.0
49.5671 483.0
49.634 513.0
49.7008 489.0
49.7677 443.0
49.8345 444.0
49.9013 456.0
49.9682 469.0
50.035 463.0
50.1019 426.0
50.1687 481.0
50.2356 395.0
50.3024 409.0
50.3693 464.0
50.4361 414.0
50.503 414.0
50.5698 457.0
50.6366 432.0
50.7035 446.0
50.7703 455.0
50.8372 427.0
50.904 438.0
50.9709 417.0
51.0377 443.0
51.1046 432.0
51.1714 423.0
51.2382 461.0
51.3051 406.0
51.3719 427.0
51.4388 419.0
51.5056 397.0
51.5725 404.0
51.6393 410.0
51.7062 440.0
51.773 414.0
51.8399 389.0
51.9067 399.0
51.9735 416.0
52.0404 410.0
52.1072 377.0
52.1741 412.0
52.2409 352.0
52.3078 368.0
52.3746 389.0
52.4415 396.0
52.5083 404.0
52.5751 387.0
52.642 410.0
52.7088 391.0
52.7757 392.0
52.8425 407.0
52.9094 379.0
52.9762 361.0
53.0431 376.0
53.1099 360.0
53.1768 389.0
53.2436 347.0
53.3104 322.0
53.3773 391.0
53.4441 370.0
53.511 397.0
53.5778 401.0
53.6447 433.0
53.7115 369.0
53.7784 394.0
53.8452 375.0
53.9121 396.0
53.9789 370.0
54.0457 385.0
54.1126 377.0
54.1794 363.0
54.2463 368.0
54.3131 391.0
54.38 364.0
54.4468 363.0
54.5137 323.0
54.5805 355.0
54.6473 337.0
54.7142 363.0
54.781 347.0
54.8479 392.0
54.9147 362.0
54.9816 386.0
55.0484 347.0
55.1153 347.0
55.1821 341.0
55.249 349.0
55.3158 340.0
55.3826 379.0
55.4495 369.0
55.5163 409.0
55.5832 398.0
55.65 389.0
55.7169 426.0
55.7837 423.0
55.8506 404.0
55.9174 425.0
55.9842 396.0
56.0511 358.0
56.1179 406.0
56.1848 411.0
56.2516 417.0
56.3185 371.0
56.3853 441.0
56.4522 397.0
56.519 425.0
56.5859 406.0
56.6527 419.0
56.7195 368.0
56.7864 385.0
56.8532 397.0
56.9201 387.0
56.9869 356.0
57.0538 388.0
57.1206 351.0
57.1875 330.0
57.2543 382.0
57.3212 300.0
57.388 336.0
57.4548 342.0
57.5217 350.0
57.5885 322.0
57.6554 348.0
57.7222 323.0
57.7891 340.0
57.8559 331.0
57.9228 309.0
57.9896 349.0
58.0564 349.0
58.1233 325.0
58.1901 365.0
58.257 330.0
58.3238 307.0
58.3907 295.0
58.4575 324.0
58.5244 337.0
58.5912 329.0
58.6581 351.0
58.7249 334.0
58.7917 320.0
58.8586 305.0
58.9254 340.0
58.9923 332.0
59.0591 298.0
59.126 318.0
59.1928 308.0
59.2597 324.0
59.3265 385.0
59.3933 386.0
59.4602 314.0
59.527 386.0
59.5939 364.0
59.6607 396.0
59.7276 391.0
59.7944 377.0
59.8613 371.0
59.9281 354.0
59.995 396.0
60.0618 357.0
60.1286 349.0
60.1955 322.0
60.2623 308.0
60.3292 338.0
60.396 353.0
60.4629 301.0
60.5297 336.0
60.5966 318.0
60.6634 322.0
60.7302 345.0
60.7971 323.0
60.8639 336.0
60.9308 338.0
60.9976 339.0
61.0645 373.0
61.1313 294.0
61.1982 324.0
61.265 319.0
61.3319 373.0
61.3987 320.0
61.4655 335.0
61.5324 350.0
61.5992 330.0
61.6661 337.0
61.7329 331.0
61.7998 328.0
61.8666 372.0
61.9335 347.0
62.0003 325.0
62.0672 295.0
62.134 331.0
62.2008 337.0
62.2677 323.0
62.3345 331.0
62.4014 309.0
62.4682 289.0
62.5351 292.0
62.6019 332.0
62.6688 293.0
62.7356 319.0
62.8024 348.0
62.8693 299.0
62.9361 300.0
63.003 299.0
63.0698 344.0
63.1367 321.0
63.2035 339.0
63.2704 309.0
63.3372 291.0
63.4041 328.0
63.4709 325.0
63.5377 317.0
63.6046 325.0
63.6714 335.0
63.7383 334.0
63.8051 319.0
63.872 320.0
63.9388 340.0
64.0057 310.0
64.0725 310.0
64.1393 316.0
64.2062 342.0
64.273 335.0
64.3399 310.0
64.4067 362.0
64.4736 304.0
64.5404 316.0
64.6073 310.0
64.6741 295.0
64.741 298.0
64.8078 271.0
64.8746 318.0
64.9415 307.0
65.0083 323.0
65.0752 323.0
65.142 288.0
65.2089 320.0
65.2757 334.0
65.3426 269.0
65.4094 310.0
65.4762 349.0
65.5431 316.0
65.6099 313.0
65.6768 336.0
65.7436 319.0
65.8105 305.0
65.8773 358.0
65.9442 325.0
66.011 320.0
66.0779 317.0
66.1447 326.0
66.2115 303.0
66.2784 303.0
66.3452 305.0
66.4121 301.0
66.4789 340.0
66.5458 298.0
66.6126 301.0
66.6795 309.0
66.7463 309.0
66.8132 316.0
66.88 313.0
66.9468 339.0
67.0137 338.0
67.0805 326.0
67.1474 331.0
67.2142 336.0
67.2811 330.0
67.3479 321.0
67.4148 337.0
67.4816 339.0
67.5484 322.0
67.6153 331.0
67.6821 344.0
67.749 337.0
67.8158 328.0
67.8827 337.0
67.9495 308.0
68.0164 291.0
68.0832 293.0
68.1501 342.0
68.2169 274.0
68.2837 323.0
68.3506 304.0
68.4174 313.0
68.4843 300.0
68.5511 314.0
68.618 303.0
68.6848 310.0
68.7517 278.0
68.8185 259.0
68.8853 331.0
68.9522 293.0
69.019 270.0
69.0859 280.0
69.1527 335.0
69.2196 316.0
69.2864 306.0
69.3533 287.0
69.4201 285.0
69.487 303.0
69.5538 322.0
69.6206 276.0
69.6875 320.0
69.7543 294.0
69.8212 331.0
69.888 289.0
69.9549 318.0
70.0217 301.0
70.0886 289.0
70.1554 293.0
70.2222 291.0
70.2891 293.0
70.3559 302.0
70.4228 308.0
70.4896 316.0
70.5565 313.0
70.6233 322.0
70.6902 381.0
70.757 301.0
70.8239 333.0
70.8907 263.0
70.9575 333.0
71.0244 321.0
71.0912 285.0
71.1581 305.0
71.2249 307.0
71.2918 272.0
71.3586 320.0
71.4255 287.0
71.4923 282.0
71.5592 305.0
71.626 301.0
71.6928 246.0
71.7597 276.0
71.8265 292.0
71.8934 286.0
71.9602 274.0
72.0271 282.0
72.0939 286.0
72.1608 268.0
72.2276 270.0
72.2944 276.0
72.3613 267.0
72.4281 276.0
72.495 276.0
72.5618 278.0
72.6287 273.0
72.6955 266.0
72.7624 283.0
72.8292 283.0
72.8961 295.0
72.9629 276.0
73.0297 294.0
73.0966 325.0
73.1634 271.0
73.2303 300.0
73.2971 289.0
73.364 286.0
73.4308 282.0
73.4977 321.0
73.5645 280.0
73.6313 270.0
73.6982 269.0
73.765 290.0
73.8319 283.0
73.8987 263.0
73.9656 278.0
74.0324 266.0
74.0993 247.0
74.1661 273.0
74.233 270.0
74.2998 256.0
74.3666 273.0
74.4335 275.0
74.5003 289.0
74.5672 276.0
74.634 264.0
74.7009 262.0
74.7677 267.0
74.8346 268.0
74.9014 260.0
74.9683 276.0
75.0351 259.0
75.1019 252.0
75.1688 235.0
75.2356 282.0
75.3025 245.0
75.3693 276.0
75.4362 264.0
75.503 246.0
75.5699 237.0
75.6367 244.0
75.7035 261.0
75.7704 223.0
75.8372 267.0
75.9041 266.0
75.9709 287.0
76.0378 253.0
76.1046 270.0
76.1715 243.0
76.2383 248.0
76.3052 262.0
76.372 269.0
76.4388 237.0
76.5057 280.0
76.5725 256.0
76.6394 257.0
76.7062 222.0
76.7731 223.0
76.8399 219.0
76.9068 263.0
76.9736 222.0
77.0404 240.0
77.1073 260.0
77.1741 244.0
77.241 239.0
77.3078 248.0
77.3747 257.0
77.4415 242.0
77.5084 226.0
77.5752 253.0
77.6421 263.0
77.7089 228.0
77.7757 231.0
77.8426 251.0
77.9094 215.0
77.9763 250.0
78.0431 257.0
78.11 257.0
78.1768 286.0
78.2437 225.0
78.3105 194.0
78.3773 242.0
78.4442 245.0
78.511 266.0
78.5779 227.0
78.6447 258.0
78.7116 257.0
78.7784 233.0
78.8453 229.0
78.9121 239.0
78.979 231.0
79.0458 232.0
79.1126 231.0
79.1795 229.0
79.2463 211.0
79.3132 213.0
79.38 251.0
79.4469 189.0
79.5137 242.0
79.5806 217.0
79.6474 200.0
79.7143 242.0
79.7811 235.0
79.8479 226.0
79.9148 206.0
79.9816 225.0
80.0485 192.0
80.1153 203.0
80.1822 217.0
80.249 210.0
80.3159 254.0
80.3827 228.0
80.4495 197.0
80.5164 213.0
80.5832 223.0
80.6501 246.0
80.7169 238.0
80.7838 246.0
80.8506 232.0
80.9175 205.0
80.9843 224.0
81.0512 207.0
81.118 223.0
81.1848 223.0
81.2517 197.0
81.3185 201.0
81.3854 217.0
81.4522 233.0
81.5191 215.0
81.5859 227.0
81.6528 179.0
81.7196 193.0
81.7864 199.0
81.8533 211.0
81.9201 213.0
81.987 211.0
82.0538 198.0
82.1207 184.0
82.1875 207.0
82.2544 183.0
82.3212 190.0
82.3881 185.0
82.4549 207.0
82.5217 182.0
82.5886 214.0
82.6554 183.0
82.7223 191.0
82.7891 203.0
82.856 197.0
82.9228 206.0
82.9897 183.0
83.0565 185.0
83.1233 174.0
83.1902 196.0
83.257 201.0
83.3239 203.0
83.3907 183.0
83.4576 183.0
83.5244 195.0
83.5913 180.0
83.6581 186.0
83.725 192.0
83.7918 196.0
83.8586 169.0
83.9255 181.0
83.9923 179.0
84.0592 196.0
84.126 184.0
84.1929 160.0
84.2597 188.0
84.3266 177.0
84.3934 176.0
84.4603 154.0
84.5271 182.0
84.5939 180.0
84.6608 177.0
84.7276 174.0
84.7945 183.0
84.8613 190.0
84.9282 167.0
84.995 176.0
85.0619 178.0
85.1287 178.0
85.1955 194.0
85.2624 186.0
85.3292 183.0
85.3961 184.0
85.4629 157.0
85.5298 165.0
85.5966 161.0
85.6635 180.0
85.7303 169.0
85.7972 174.0
85.864 176.0
85.9308 178.0
85.9977 188.0
86.0645 184.0
86.1314 173.0
86.1982 169.0
86.2651 160.0
86.3319 159.0
86.3988 162.0
86.4656 149.0
86.5324 169.0
86.5993 177.0
86.6661 142.0
86.733 162.0
86.7998 172.0
86.8667 149.0
86.9335 157.0
87.0004 196.0
87.0672 174.0
87.1341 173.0
87.2009 144.0
87.2677 174.0
87.3346 148.0
87.4014 168.0
87.4683 147.0
87.5351 155.0
87.602 157.0
87.6688 165.0
87.7357 155.0
87.8025 160.0
87.8693 157.0
87.9362 166.0
88.003 175.0
88.0699 177.0
88.1367 185.0
88.2036 174.0
88.2704 150.0
88.3373 175.0
88.4041 149.0
88.471 148.0
88.5378 134.0
88.6046 167.0
88.6715 141.0
88.7383 132.0
88.8052 143.0
88.872 160.0
88.9389 138.0
89.0057 138.0
89.0726 135.0
89.1394 163.0
89.2063 148.0
89.2731 163.0
89.3399 158.0
89.4068 195.0
89.4736 130.0
89.5405 155.0
89.6073 149.0
89.6742 162.0
89.741 165.0
89.8079 158.0
89.8747 159.0
89.9415 130.0