File: code/XRD_Analysis/External Sources/Alex_SAPO/20221129_SAPO-34_CASALE_calc650C_10h.xy
4.98146 1565.0
5.0483 1591.0
5.11515 1482.0
5.18199 1454.0
5.24884 1402.0
5.31568 1414.0
5.38253 1417.0
5.44937 1371.0
5.51622 1300.0
5.58306 1246.0
5.64991 1328.0
5.71675 1285.0
5.7836 1323.0
5.85044 1253.0
5.91729 1232.0
5.98413 1197.0
6.05098 1230.0
6.11782 1234.0
6.18467 1246.0
6.25151 1226.0
6.31836 1185.0
6.3852 1193.0
6.45205 1206.0
6.51889 1194.0
6.58574 1118.0
6.65258 1162.0
6.71943 1129.0
6.78627 1112.0
6.85312 1084.0
6.91996 1073.0
6.98681 1007.0
7.05365 1075.0
7.1205 1055.0
7.18734 1103.0
7.25419 1047.0
7.32103 1045.0
7.38788 1101.0
7.45472 1025.0
7.52157 1075.0
7.58841 1003.0
7.65526 1050.0
7.7221 1000.0
7.78895 1106.0
7.85579 1040.0
7.92264 1011.0
7.98948 971.0
8.05633 975.0
8.12317 949.0
8.19002 961.0
8.25686 957.0
8.32371 915.0
8.39055 1005.0
8.4574 892.0
8.52424 966.0
8.59109 966.0
8.65793 939.0
8.72478 912.0
8.79162 969.0
8.85847 937.0
8.92532 948.0
8.99216 993.0
9.05901 923.0
9.12585 987.0
9.1927 946.0
9.25954 967.0
9.32639 1058.0
9.39323 1364.0
9.46008 2096.0
9.52692 4945.0
9.59377 4880.0
9.66061 1611.0
9.72746 1094.0
9.7943 966.0
9.86115 976.0
9.92799 906.0
9.99484 948.0
10.0617 895.0
10.1285 881.0
10.1954 894.0
10.2622 818.0
10.3291 862.0
10.3959 835.0
10.4628 819.0
10.5296 856.0
10.5964 862.0
10.6633 775.0
10.7301 789.0
10.797 846.0
10.8638 801.0
10.9307 835.0
10.9975 833.0
11.0644 839.0
11.1312 852.0
11.198 825.0
11.2649 807.0
11.3317 757.0
11.3986 776.0
11.4654 785.0
11.5323 822.0
11.5991 901.0
11.666 830.0
11.7328 773.0
11.7997 773.0
11.8665 795.0
11.9333 790.0
12.0002 833.0
12.067 877.0
12.1339 857.0
12.2007 794.0
12.2676 802.0
12.3344 770.0
12.4013 814.0
12.4681 817.0
12.5349 810.0
12.6018 850.0
12.6686 852.0
12.7355 870.0
12.8023 876.0
12.8692 1129.0
12.936 1770.0
13.0029 2051.0
13.0697 1376.0
13.1366 974.0
13.2034 923.0
13.2702 868.0
13.3371 868.0
13.4039 866.0
13.4708 891.0
13.5376 834.0
13.6045 756.0
13.6713 839.0
13.7382 838.0
13.805 822.0
13.8719 804.0
13.9387 896.0
14.0055 878.0
14.0724 885.0
14.1392 837.0
14.2061 728.0
14.2729 857.0
14.3398 819.0
14.4066 815.0
14.4735 787.0
14.5403 852.0
14.6071 883.0
14.674 840.0
14.7408 902.0
14.8077 815.0
14.8745 829.0
14.9414 805.0
15.0082 864.0
15.0751 906.0
15.1419 860.0
15.2088 872.0
15.2756 862.0
15.3424 880.0
15.4093 861.0
15.4761 830.0
15.543 857.0
15.6098 888.0
15.6767 900.0
15.7435 950.0
15.8104 927.0
15.8772 891.0
15.944 985.0
16.0109 1145.0
16.0777 1603.0
16.1446 2106.0
16.2114 1660.0
16.2783 1179.0
16.3451 1042.0
16.412 1063.0
16.4788 1004.0
16.5457 943.0
16.6125 985.0
16.6793 1052.0
16.7462 1051.0
16.813 1056.0
16.8799 1093.0
16.9467 1105.0
17.0136 1091.0
17.0804 1135.0
17.1473 1119.0
17.2141 1138.0
17.2809 1128.0
17.3478 1177.0
17.4146 1182.0
17.4815 1178.0
17.5483 1304.0
17.6152 1303.0
17.682 1381.0
17.7489 1616.0
17.8157 1992.0
17.8826 1965.0
17.9494 1729.0
18.0162 1458.0
18.0831 1364.0
18.1499 1308.0
18.2168 1396.0
18.2836 1432.0
18.3505 1334.0
18.4173 1428.0
18.4842 1376.0
18.551 1495.0
18.6179 1456.0
18.6847 1499.0
18.7515 1521.0
18.8184 1473.0
18.8852 1478.0
18.9521 1447.0
19.0189 1589.0
19.0858 1638.0
19.1526 1802.0
19.2195 1772.0
19.2863 1674.0
19.3531 1610.0
19.42 1716.0
19.4868 1638.0
19.5537 1769.0
19.6205 1782.0
19.6874 1693.0
19.7542 1821.0
19.8211 1852.0
19.8879 1877.0
19.9548 1914.0
20.0216 1902.0
20.0884 1946.0
20.1553 2020.0
20.2221 1978.0
20.289 2128.0
20.3558 2110.0
20.4227 2104.0
20.4895 2335.0
20.5564 2493.0
20.6232 2836.0
20.69 3914.0
20.7569 5243.0
20.8237 4555.0
20.8906 3370.0
20.9574 2697.0
21.0243 2497.0
21.0911 2454.0
21.158 2437.0
21.2248 2356.0
21.2917 2363.0
21.3585 2436.0
21.4253 2323.0
21.4922 2271.0
21.559 2366.0
21.6259 2405.0
21.6927 2401.0
21.7596 2410.0
21.8264 2272.0
21.8933 2340.0
21.9601 2289.0
22.0269 2470.0
22.0938 2428.0
22.1606 2483.0
22.2275 2505.0
22.2943 2424.0
22.3612 2389.0
22.428 2380.0
22.4949 2329.0
22.5617 2447.0
22.6286 2359.0
22.6954 2354.0
22.7622 2392.0
22.8291 2345.0
22.8959 2361.0
22.9628 2283.0
23.0296 2364.0
23.0965 2561.0
23.1633 2789.0
23.2302 2939.0
23.297 2764.0
23.3639 2393.0
23.4307 2281.0
23.4975 2226.0
23.5644 2245.0
23.6312 2276.0
23.6981 2134.0
23.7649 2234.0
23.8318 2125.0
23.8986 2176.0
23.9655 2078.0
24.0323 2132.0
24.0991 2115.0
24.166 2151.0
24.2328 2071.0
24.2997 1954.0
24.3665 2116.0
24.4334 2096.0
24.5002 2083.0
24.5671 2044.0
24.6339 2016.0
24.7008 1968.0
24.7676 2001.0
24.8344 2064.0
24.9013 2274.0
24.9681 2494.0
25.035 2821.0
25.1018 2702.0
25.1687 2351.0
25.2355 2192.0
25.3024 2000.0
25.3692 1930.0
25.436 1953.0
25.5029 1877.0
25.5697 1813.0
25.6366 1912.0
25.7034 1865.0
25.7703 1791.0
25.8371 1784.0
25.904 1792.0
25.9708 1991.0
26.0377 2265.0
26.1045 2468.0
26.1713 2542.0
26.2382 2190.0
26.305 1934.0
26.3719 1835.0
26.4387 1658.0
26.5056 1595.0
26.5724 1663.0
26.6393 1629.0
26.7061 1642.0
26.773 1552.0
26.8398 1640.0
26.9066 1559.0
26.9735 1529.0
27.0403 1614.0
27.1072 1455.0
27.174 1500.0
27.2409 1482.0
27.3077 1491.0
27.3746 1534.0
27.4414 1490.0
27.5082 1534.0
27.5751 1427.0
27.6419 1470.0
27.7088 1480.0
27.7756 1543.0
27.8425 1531.0
27.9093 1604.0
27.9762 1624.0
28.043 1486.0
28.1099 1414.0
28.1767 1455.0
28.2435 1542.0
28.3104 1652.0
28.3772 1615.0
28.4441 1500.0
28.5109 1401.0
28.5778 1451.0
28.6446 1372.0
28.7115 1348.0
28.7783 1373.0
28.8451 1287.0
28.912 1332.0
28.9788 1294.0
29.0457 1302.0
29.1125 1333.0
29.1794 1329.0
29.2462 1242.0
29.3131 1246.0
29.3799 1238.0
29.4468 1245.0
29.5136 1228.0
29.5804 1229.0
29.6473 1298.0
29.7141 1387.0
29.781 1326.0
29.8478 1339.0
29.9147 1337.0
29.9815 1284.0
30.0484 1252.0
30.1152 1299.0
30.182 1296.0
30.2489 1305.0
30.3157 1397.0
30.3826 1372.0
30.4494 1378.0
30.5163 1381.0
30.5831 1516.0
30.65 1644.0
30.7168 2038.0
30.7837 2646.0
30.8505 3004.0
30.9173 3041.0
30.9842 2704.0
31.051 2246.0
31.1179 2049.0
31.1847 2041.0
31.2516 2173.0
31.3184 2057.0
31.3853 1688.0
31.4521 1503.0
31.519 1449.0
31.5858 1285.0
31.6526 1260.0
31.7195 1213.0
31.7863 1324.0
31.8532 1326.0
31.92 1245.0
31.9869 1241.0
32.0537 1198.0
32.1206 1094.0
32.1874 1128.0
32.2542 1088.0
32.3211 1043.0
32.3879 1024.0
32.4548 1074.0
32.5216 1086.0
32.5885 1081.0
32.6553 1099.0
32.7222 1080.0
32.789 1018.0
32.8559 1039.0
32.9227 1098.0
32.9895 1031.0
33.0564 1098.0
33.1232 1008.0
33.1901 937.0
33.2569 1004.0
33.3238 1000.0
33.3906 1039.0
33.4575 990.0
33.5243 1029.0
33.5911 1105.0
33.658 1078.0
33.7248 1051.0
33.7917 1004.0
33.8585 1019.0
33.9254 967.0
33.9922 976.0
34.0591 1012.0
34.1259 982.0
34.1928 939.0
34.2596 950.0
34.3264 976.0
34.3933 938.0
34.4601 973.0
34.527 937.0
34.5938 997.0
34.6607 1020.0
34.7275 1066.0
34.7944 1218.0
34.8612 1181.0
34.928 1039.0
34.9949 1043.0
35.0617 980.0
35.1286 977.0
35.1954 955.0
35.2623 987.0
35.3291 976.0
35.396 925.0
35.4628 963.0
35.5297 897.0
35.5965 897.0
35.6633 846.0
35.7302 901.0
35.797 887.0
35.8639 881.0
35.9307 828.0
35.9976 886.0
36.0644 895.0
36.1313 975.0
36.1981 949.0
36.265 954.0
36.3318 943.0
36.3986 855.0
36.4655 880.0
36.5323 840.0
36.5992 876.0
36.666 831.0
36.7329 835.0
36.7997 840.0
36.8666 826.0
36.9334 806.0
37.0002 844.0
37.0671 798.0
37.1339 786.0
37.2008 825.0
37.2676 800.0
37.3345 830.0
37.4013 788.0
37.4682 792.0
37.535 822.0
37.6019 769.0
37.6687 825.0
37.7355 803.0
37.8024 809.0
37.8692 755.0
37.9361 717.0
38.0029 799.0
38.0698 738.0
38.1366 801.0
38.2035 753.0
38.2703 768.0
38.3371 767.0
38.404 754.0
38.4708 742.0
38.5377 775.0
38.6045 753.0
38.6714 723.0
38.7382 746.0
38.8051 767.0
38.8719 712.0
38.9388 816.0
39.0056 745.0
39.0724 726.0
39.1393 741.0
39.2061 794.0
39.273 744.0
39.3398 758.0
39.4067 741.0
39.4735 776.0
39.5404 764.0
39.6072 730.0
39.6741 748.0
39.7409 722.0
39.8077 730.0
39.8746 714.0
39.9414 746.0
40.0083 740.0
40.0751 783.0
40.142 746.0
40.2088 806.0
40.2757 743.0
40.3425 682.0
40.4093 715.0
40.4762 706.0
40.543 703.0
40.6099 701.0
40.6767 700.0
40.7436 692.0
40.8104 717.0
40.8773 627.0
40.9441 666.0
41.011 627.0
41.0778 670.0
41.1446 659.0
41.2115 683.0
41.2783 658.0
41.3452 653.0
41.412 690.0
41.4789 653.0
41.5457 665.0
41.6126 672.0
41.6794 666.0
41.7462 670.0
41.8131 666.0
41.8799 692.0
41.9468 673.0
42.0136 662.0
42.0805 683.0
42.1473 692.0
42.2142 646.0
42.281 696.0
42.3479 713.0
42.4147 643.0
42.4815 721.0
42.5484 688.0
42.6152 665.0
42.6821 739.0
42.7489 737.0
42.8158 688.0
42.8826 726.0
42.9495 731.0
43.0163 731.0
43.0831 744.0
43.15 752.0
43.2168 704.0
43.2837 722.0
43.3505 691.0
43.4174 730.0
43.4842 701.0
43.5511 704.0
43.6179 700.0
43.6848 707.0
43.7516 756.0
43.8184 748.0
43.8853 752.0
43.9521 706.0
44.019 688.0
44.0858 686.0
44.1527 766.0
44.2195 710.0
44.2864 731.0
44.3532 667.0
44.4201 725.0
44.4869 710.0
44.5537 677.0
44.6206 720.0
44.6874 711.0
44.7543 675.0
44.8211 715.0
44.888 696.0
44.9548 682.0
45.0217 700.0
45.0885 705.0
45.1553 701.0
45.2222 715.0
45.289 670.0
45.3559 688.0
45.4227 714.0
45.4896 745.0
45.5564 723.0
45.6233 754.0
45.6901 768.0
45.757 769.0
45.8238 761.0
45.8906 686.0
45.9575 697.0
46.0243 724.0
46.0912 713.0
46.158 730.0
46.2249 691.0
46.2917 763.0
46.3586 708.0
46.4254 695.0
46.4922 699.0
46.5591 653.0
46.6259 677.0
46.6928 707.0
46.7596 646.0
46.8265 693.0
46.8933 666.0
46.9602 677.0
47.027 644.0
47.0939 717.0
47.1607 688.0
47.2275 650.0
47.2944 618.0
47.3612 693.0
47.4281 664.0
47.4949 664.0
47.5618 629.0
47.6286 692.0
47.6955 700.0
47.7623 673.0
47.8291 656.0
47.896 663.0
47.9628 685.0
48.0297 688.0
48.0965 669.0
48.1634 730.0
48.2302 677.0
48.2971 711.0
48.3639 677.0
48.4308 612.0
48.4976 637.0
48.5644 651.0
48.6313 626.0
48.6981 612.0
48.765 607.0
48.8318 656.0
48.8987 621.0
48.9655 660.0
49.0324 723.0
49.0992 788.0
49.1661 762.0
49.2329 830.0
49.2997 740.0
49.3666 767.0
49.4334 645.0
49.5003 746.0
49.5671 673.0
49.634 621.0
49.7008 659.0
49.7677 632.0
49.8345 657.0
49.9013 606.0
49.9682 594.0
50.035 678.0
50.1019 628.0
50.1687 614.0
50.2356 649.0
50.3024 633.0
50.3693 669.0
50.4361 689.0
50.503 627.0
50.5698 645.0
50.6366 685.0
50.7035 668.0
50.7703 657.0
50.8372 664.0
50.904 725.0
50.9709 714.0
51.0377 734.0
51.1046 772.0
51.1714 709.0
51.2382 686.0
51.3051 675.0
51.3719 719.0
51.4388 632.0
51.5056 615.0
51.5725 633.0
51.6393 606.0
51.7062 612.0
51.773 566.0
51.8399 567.0
51.9067 625.0
51.9735 627.0
52.0404 606.0
52.1072 597.0
52.1741 614.0
52.2409 654.0
52.3078 618.0
52.3746 623.0
52.4415 600.0
52.5083 622.0
52.5751 629.0
52.642 557.0
52.7088 580.0
52.7757 574.0
52.8425 612.0
52.9094 605.0
52.9762 619.0
53.0431 618.0
53.1099 660.0
53.1768 637.0
53.2436 660.0
53.3104 626.0
53.3773 648.0
53.4441 688.0
53.511 639.0
53.5778 656.0
53.6447 680.0
53.7115 635.0
53.7784 663.0
53.8452 699.0
53.9121 682.0
53.9789 703.0
54.0457 682.0
54.1126 606.0
54.1794 614.0
54.2463 612.0
54.3131 605.0
54.38 631.0
54.4468 599.0
54.5137 630.0
54.5805 620.0
54.6473 622.0
54.7142 650.0
54.781 613.0
54.8479 665.0
54.9147 631.0
54.9816 621.0
55.0484 656.0
55.1153 611.0
55.1821 617.0
55.249 610.0
55.3158 572.0
55.3826 641.0
55.4495 584.0
55.5163 601.0
55.5832 669.0
55.65 602.0
55.7169 619.0
55.7837 620.0
55.8506 639.0
55.9174 611.0
55.9842 619.0
56.0511 603.0
56.1179 610.0
56.1848 630.0
56.2516 656.0
56.3185 643.0
56.3853 643.0
56.4522 662.0
56.519 625.0
56.5859 715.0
56.6527 660.0
56.7195 636.0
56.7864 569.0
56.8532 637.0
56.9201 636.0
56.9869 660.0
57.0538 575.0
57.1206 595.0
57.1875 598.0
57.2543 602.0
57.3212 598.0
57.388 601.0
57.4548 629.0
57.5217 575.0
57.5885 563.0
57.6554 581.0
57.7222 574.0
57.7891 595.0
57.8559 628.0
57.9228 563.0
57.9896 554.0
58.0564 597.0
58.1233 603.0
58.1901 642.0
58.257 616.0
58.3238 599.0
58.3907 601.0
58.4575 587.0
58.5244 619.0
58.5912 609.0
58.6581 646.0
58.7249 644.0
58.7917 632.0
58.8586 653.0
58.9254 527.0
58.9923 554.0
59.0591 592.0
59.126 626.0
59.1928 620.0
59.2597 645.0
59.3265 613.0
59.3933 600.0
59.4602 612.0
59.527 591.0
59.5939 618.0
59.6607 614.0
59.7276 598.0
59.7944 656.0
59.8613 672.0
59.9281 643.0
59.995 666.0
60.0618 700.0
60.1286 650.0
60.1955 631.0
60.2623 665.0
60.3292 573.0
60.396 645.0
60.4629 632.0
60.5297 617.0
60.5966 670.0
60.6634 614.0
60.7302 674.0
60.7971 556.0
60.8639 587.0
60.9308 636.0
60.9976 609.0
61.0645 559.0
61.1313 621.0
61.1982 642.0
61.265 612.0
61.3319 563.0
61.3987 651.0
61.4655 607.0
61.5324 646.0
61.5992 705.0
61.6661 629.0
61.7329 688.0
61.7998 651.0
61.8666 662.0
61.9335 705.0
62.0003 619.0
62.0672 679.0
62.134 607.0
62.2008 592.0
62.2677 652.0
62.3345 610.0
62.4014 615.0
62.4682 647.0
62.5351 652.0
62.6019 590.0
62.6688 620.0
62.7356 632.0
62.8024 625.0
62.8693 610.0
62.9361 634.0
63.003 630.0
63.0698 607.0
63.1367 648.0
63.2035 607.0
63.2704 612.0
63.3372 617.0
63.4041 603.0
63.4709 635.0
63.5377 618.0
63.6046 658.0
63.6714 579.0
63.7383 648.0
63.8051 634.0
63.872 606.0
63.9388 639.0
64.0057 601.0
64.0725 600.0
64.1393 657.0
64.2062 649.0
64.273 623.0
64.3399 649.0
64.4067 614.0
64.4736 634.0
64.5404 614.0
64.6073 585.0
64.6741 699.0
64.741 647.0
64.8078 581.0
64.8746 647.0
64.9415 629.0
65.0083 583.0
65.0752 590.0
65.142 648.0
65.2089 604.0
65.2757 630.0
65.3426 616.0
65.4094 618.0
65.4762 645.0
65.5431 601.0
65.6099 659.0
65.6768 596.0
65.7436 639.0
65.8105 626.0
65.8773 701.0
65.9442 570.0
66.011 649.0
66.0779 659.0
66.1447 703.0
66.2115 674.0
66.2784 672.0
66.3452 698.0
66.4121 696.0
66.4789 675.0
66.5458 726.0
66.6126 696.0
66.6795 758.0
66.7463 745.0
66.8132 713.0
66.88 654.0
66.9468 741.0
67.0137 731.0
67.0805 730.0
67.1474 713.0
67.2142 679.0
67.2811 697.0
67.3479 662.0
67.4148 683.0
67.4816 709.0
67.5484 713.0
67.6153 653.0
67.6821 663.0
67.749 620.0
67.8158 609.0
67.8827 652.0
67.9495 560.0
68.0164 613.0
68.0832 600.0
68.1501 561.0
68.2169 609.0
68.2837 620.0
68.3506 613.0
68.4174 556.0
68.4843 574.0
68.5511 554.0
68.618 625.0
68.6848 588.0
68.7517 583.0
68.8185 586.0
68.8853 543.0
68.9522 549.0
69.019 599.0
69.0859 576.0
69.1527 551.0
69.2196 561.0
69.2864 578.0
69.3533 543.0
69.4201 605.0
69.487 586.0
69.5538 572.0
69.6206 560.0
69.6875 616.0
69.7543 613.0
69.8212 565.0
69.888 584.0
69.9549 559.0
70.0217 617.0
70.0886 569.0
70.1554 615.0
70.2222 591.0
70.2891 518.0
70.3559 619.0
70.4228 540.0
70.4896 548.0
70.5565 584.0
70.6233 573.0
70.6902 571.0
70.757 599.0
70.8239 581.0
70.8907 576.0
70.9575 550.0
71.0244 554.0
71.0912 565.0
71.1581 582.0
71.2249 537.0
71.2918 565.0
71.3586 585.0
71.4255 569.0
71.4923 540.0
71.5592 573.0
71.626 558.0
71.6928 581.0
71.7597 594.0
71.8265 616.0
71.8934 542.0
71.9602 554.0
72.0271 556.0
72.0939 573.0
72.1608 578.0
72.2276 601.0
72.2944 551.0
72.3613 581.0
72.4281 601.0
72.495 549.0
72.5618 564.0
72.6287 552.0
72.6955 534.0
72.7624 547.0
72.8292 536.0
72.8961 563.0
72.9629 534.0
73.0297 558.0
73.0966 509.0
73.1634 507.0
73.2303 572.0
73.2971 542.0
73.364 524.0
73.4308 541.0
73.4977 520.0
73.5645 535.0
73.6313 511.0
73.6982 537.0
73.765 535.0
73.8319 549.0
73.8987 526.0
73.9656 504.0
74.0324 529.0
74.0993 518.0
74.1661 526.0
74.233 547.0
74.2998 501.0
74.3666 554.0
74.4335 557.0
74.5003 557.0
74.5672 485.0
74.634 561.0
74.7009 500.0
74.7677 531.0
74.8346 569.0
74.9014 534.0
74.9683 555.0
75.0351 518.0
75.1019 505.0
75.1688 526.0
75.2356 540.0
75.3025 540.0
75.3693 496.0
75.4362 512.0
75.503 532.0
75.5699 511.0
75.6367 523.0
75.7035 529.0
75.7704 536.0
75.8372 547.0
75.9041 543.0
75.9709 517.0
76.0378 518.0
76.1046 493.0
76.1715 525.0
76.2383 527.0
76.3052 493.0
76.372 490.0
76.4388 522.0
76.5057 503.0
76.5725 542.0
76.6394 533.0
76.7062 540.0
76.7731 520.0
76.8399 510.0
76.9068 538.0
76.9736 501.0
77.0404 502.0
77.1073 504.0
77.1741 534.0
77.241 532.0
77.3078 491.0
77.3747 511.0
77.4415 491.0
77.5084 568.0
77.5752 518.0
77.6421 501.0
77.7089 519.0
77.7757 454.0
77.8426 458.0
77.9094 548.0
77.9763 534.0
78.0431 496.0
78.11 522.0
78.1768 487.0
78.2437 539.0
78.3105 528.0
78.3773 498.0
78.4442 469.0
78.511 466.0
78.5779 486.0
78.6447 514.0
78.7116 465.0
78.7784 481.0
78.8453 480.0
78.9121 488.0
78.979 488.0
79.0458 517.0
79.1126 493.0
79.1795 508.0
79.2463 489.0
79.3132 502.0
79.38 489.0
79.4469 489.0
79.5137 523.0
79.5806 438.0
79.6474 477.0
79.7143 475.0
79.7811 506.0
79.8479 513.0
79.9148 475.0
79.9816 508.0
80.0485 480.0
80.1153 462.0
80.1822 496.0
80.249 479.0
80.3159 545.0
80.3827 497.0
80.4495 516.0
80.5164 462.0
80.5832 465.0
80.6501 451.0
80.7169 483.0
80.7838 470.0
80.8506 500.0
80.9175 518.0
80.9843 480.0
81.0512 434.0
81.118 457.0
81.1848 432.0
81.2517 481.0
81.3185 426.0
81.3854 400.0
81.4522 454.0
81.5191 445.0
81.5859 445.0
81.6528 425.0
81.7196 454.0
81.7864 476.0
81.8533 438.0
81.9201 428.0
81.987 420.0
82.0538 425.0
82.1207 444.0
82.1875 459.0
82.2544 431.0
82.3212 477.0
82.3881 460.0
82.4549 436.0
82.5217 417.0
82.5886 408.0
82.6554 417.0
82.7223 441.0
82.7891 399.0
82.856 444.0
82.9228 404.0
82.9897 391.0
83.0565 422.0
83.1233 396.0
83.1902 416.0
83.257 417.0
83.3239 433.0
83.3907 457.0
83.4576 380.0
83.5244 388.0
83.5913 424.0
83.6581 386.0
83.725 406.0
83.7918 389.0
83.8586 352.0
83.9255 373.0
83.9923 388.0
84.0592 414.0
84.126 364.0
84.1929 347.0
84.2597 376.0
84.3266 358.0
84.3934 386.0
84.4603 389.0
84.5271 392.0
84.5939 347.0
84.6608 338.0
84.7276 384.0
84.7945 386.0
84.8613 382.0
84.9282 389.0
84.995 399.0
85.0619 400.0
85.1287 382.0
85.1955 366.0
85.2624 386.0
85.3292 354.0
85.3961 381.0
85.4629 368.0
85.5298 364.0
85.5966 362.0
85.6635 380.0
85.7303 368.0
85.7972 404.0
85.864 389.0
85.9308 366.0
85.9977 362.0
86.0645 358.0
86.1314 360.0
86.1982 361.0
86.2651 298.0
86.3319 339.0
86.3988 329.0
86.4656 315.0
86.5324 351.0
86.5993 333.0
86.6661 333.0
86.733 321.0
86.7998 336.0
86.8667 326.0
86.9335 354.0
87.0004 324.0
87.0672 304.0
87.1341 315.0
87.2009 321.0
87.2677 332.0
87.3346 331.0
87.4014 319.0
87.4683 329.0
87.5351 333.0
87.602 352.0
87.6688 315.0
87.7357 329.0
87.8025 323.0
87.8693 330.0
87.9362 348.0
88.003 334.0
88.0699 324.0
88.1367 316.0
88.2036 287.0
88.2704 328.0
88.3373 345.0
88.4041 306.0
88.471 323.0
88.5378 295.0
88.6046 298.0
88.6715 331.0
88.7383 348.0
88.8052 321.0
88.872 316.0
88.9389 318.0
89.0057 333.0
89.0726 315.0
89.1394 320.0
89.2063 286.0
89.2731 310.0
89.3399 326.0
89.4068 316.0
89.4736 318.0
89.5405 318.0
89.6073 302.0
89.6742 310.0
89.741 316.0
89.8079 317.0
89.8747 297.0
89.9415 307.0