File: code/XRD_Analysis/External Sources/Alex_SAPO/20220704_SAPO-34_CASALE.xy
4.98146 1602.0
5.0483 1571.0
5.11515 1562.0
5.18199 1421.0
5.24884 1508.0
5.31568 1485.0
5.38253 1501.0
5.44937 1427.0
5.51622 1360.0
5.58306 1395.0
5.64991 1418.0
5.71675 1379.0
5.7836 1400.0
5.85044 1291.0
5.91729 1320.0
5.98413 1278.0
6.05098 1315.0
6.11782 1231.0
6.18467 1201.0
6.25151 1159.0
6.31836 1218.0
6.3852 1215.0
6.45205 1195.0
6.51889 1169.0
6.58574 1199.0
6.65258 1193.0
6.71943 1126.0
6.78627 1183.0
6.85312 1106.0
6.91996 1071.0
6.98681 1130.0
7.05365 1086.0
7.1205 1138.0
7.18734 1105.0
7.25419 1114.0
7.32103 1096.0
7.38788 1125.0
7.45472 1048.0
7.52157 1094.0
7.58841 1066.0
7.65526 1032.0
7.7221 1034.0
7.78895 1056.0
7.85579 1068.0
7.92264 1028.0
7.98948 1007.0
8.05633 1027.0
8.12317 973.0
8.19002 987.0
8.25686 1015.0
8.32371 979.0
8.39055 977.0
8.4574 1076.0
8.52424 949.0
8.59109 1012.0
8.65793 948.0
8.72478 944.0
8.79162 981.0
8.85847 924.0
8.92532 956.0
8.99216 937.0
9.05901 965.0
9.12585 914.0
9.1927 1017.0
9.25954 1041.0
9.32639 1160.0
9.39323 1653.0
9.46008 2931.0
9.52692 5443.0
9.59377 2254.0
9.66061 1159.0
9.72746 1019.0
9.7943 971.0
9.86115 901.0
9.92799 853.0
9.99484 892.0
10.0617 932.0
10.1285 848.0
10.1954 835.0
10.2622 894.0
10.3291 871.0
10.3959 886.0
10.4628 859.0
10.5296 868.0
10.5964 855.0
10.6633 882.0
10.7301 822.0
10.797 842.0
10.8638 773.0
10.9307 790.0
10.9975 853.0
11.0644 794.0
11.1312 823.0
11.198 833.0
11.2649 820.0
11.3317 804.0
11.3986 813.0
11.4654 751.0
11.5323 791.0
11.5991 785.0
11.666 824.0
11.7328 817.0
11.7997 784.0
11.8665 772.0
11.9333 809.0
12.0002 775.0
12.067 848.0
12.1339 791.0
12.2007 748.0
12.2676 785.0
12.3344 803.0
12.4013 835.0
12.4681 812.0
12.5349 754.0
12.6018 864.0
12.6686 800.0
12.7355 842.0
12.8023 929.0
12.8692 1385.0
12.936 2002.0
13.0029 1540.0
13.0697 950.0
13.1366 900.0
13.2034 868.0
13.2702 795.0
13.3371 799.0
13.4039 800.0
13.4708 787.0
13.5376 822.0
13.6045 724.0
13.6713 766.0
13.7382 774.0
13.805 729.0
13.8719 793.0
13.9387 846.0
14.0055 895.0
14.0724 828.0
14.1392 802.0
14.2061 803.0
14.2729 739.0
14.3398 774.0
14.4066 724.0
14.4735 756.0
14.5403 813.0
14.6071 776.0
14.674 819.0
14.7408 802.0
14.8077 756.0
14.8745 770.0
14.9414 804.0
15.0082 759.0
15.0751 795.0
15.1419 786.0
15.2088 777.0
15.2756 797.0
15.3424 839.0
15.4093 832.0
15.4761 789.0
15.543 838.0
15.6098 818.0
15.6767 859.0
15.7435 806.0
15.8104 844.0
15.8772 872.0
15.944 963.0
16.0109 1223.0
16.0777 1757.0
16.1446 1596.0
16.2114 1084.0
16.2783 969.0
16.3451 880.0
16.412 927.0
16.4788 907.0
16.5457 906.0
16.6125 976.0
16.6793 928.0
16.7462 951.0
16.813 949.0
16.8799 950.0
16.9467 942.0
17.0136 1001.0
17.0804 989.0
17.1473 1006.0
17.2141 974.0
17.2809 986.0
17.3478 1115.0
17.4146 1101.0
17.4815 1062.0
17.5483 1090.0
17.6152 1176.0
17.682 1275.0
17.7489 1613.0
17.8157 1729.0
17.8826 1439.0
17.9494 1244.0
18.0162 1152.0
18.0831 1188.0
18.1499 1169.0
18.2168 1172.0
18.2836 1175.0
18.3505 1204.0
18.4173 1222.0
18.4842 1243.0
18.551 1224.0
18.6179 1209.0
18.6847 1306.0
18.7515 1294.0
18.8184 1304.0
18.8852 1315.0
18.9521 1419.0
19.0189 1390.0
19.0858 1431.0
19.1526 1549.0
19.2195 1445.0
19.2863 1381.0
19.3531 1432.0
19.42 1466.0
19.4868 1444.0
19.5537 1506.0
19.6205 1497.0
19.6874 1604.0
19.7542 1597.0
19.8211 1572.0
19.8879 1604.0
19.9548 1679.0
20.0216 1718.0
20.0884 1698.0
20.1553 1714.0
20.2221 1791.0
20.289 1752.0
20.3558 1862.0
20.4227 1839.0
20.4895 2084.0
20.5564 2260.0
20.6232 2875.0
20.69 4158.0
20.7569 4157.0
20.8237 3012.0
20.8906 2299.0
20.9574 2161.0
21.0243 2101.0
21.0911 2075.0
21.158 2010.0
21.2248 2115.0
21.2917 2046.0
21.3585 2054.0
21.4253 2023.0
21.4922 2005.0
21.559 2034.0
21.6259 1971.0
21.6927 2035.0
21.7596 2012.0
21.8264 2025.0
21.8933 2027.0
21.9601 2065.0
22.0269 2162.0
22.0938 2159.0
22.1606 2130.0
22.2275 2048.0
22.2943 2042.0
22.3612 1996.0
22.428 1990.0
22.4949 2122.0
22.5617 2025.0
22.6286 2032.0
22.6954 2049.0
22.7622 2052.0
22.8291 1987.0
22.8959 2021.0
22.9628 2026.0
23.0296 2195.0
23.0965 2324.0
23.1633 2510.0
23.2302 2412.0
23.297 2174.0
23.3639 1943.0
23.4307 1963.0
23.4975 1878.0
23.5644 1947.0
23.6312 1971.0
23.6981 1924.0
23.7649 1985.0
23.8318 1900.0
23.8986 1860.0
23.9655 1853.0
24.0323 1869.0
24.0991 1897.0
24.166 1844.0
24.2328 1908.0
24.2997 1821.0
24.3665 1874.0
24.4334 1830.0
24.5002 1821.0
24.5671 1848.0
24.6339 1833.0
24.7008 1865.0
24.7676 1837.0
24.8344 1947.0
24.9013 2156.0
24.9681 2546.0
25.035 2409.0
25.1018 2121.0
25.1687 1883.0
25.2355 1832.0
25.3024 1877.0
25.3692 1678.0
25.436 1708.0
25.5029 1621.0
25.5697 1634.0
25.6366 1642.0
25.7034 1678.0
25.7703 1619.0
25.8371 1662.0
25.904 1745.0
25.9708 1875.0
26.0377 2192.0
26.1045 2308.0
26.1713 2020.0
26.2382 1757.0
26.305 1645.0
26.3719 1479.0
26.4387 1525.0
26.5056 1549.0
26.5724 1465.0
26.6393 1533.0
26.7061 1481.0
26.773 1435.0
26.8398 1476.0
26.9066 1310.0
26.9735 1393.0
27.0403 1392.0
27.1072 1375.0
27.174 1426.0
27.2409 1376.0
27.3077 1339.0
27.3746 1392.0
27.4414 1371.0
27.5082 1435.0
27.5751 1317.0
27.6419 1366.0
27.7088 1456.0
27.7756 1454.0
27.8425 1522.0
27.9093 1384.0
27.9762 1366.0
28.043 1387.0
28.1099 1312.0
28.1767 1538.0
28.2435 1579.0
28.3104 1567.0
28.3772 1398.0
28.4441 1319.0
28.5109 1236.0
28.5778 1278.0
28.6446 1220.0
28.7115 1246.0
28.7783 1276.0
28.8451 1255.0
28.912 1273.0
28.9788 1245.0
29.0457 1241.0
29.1125 1259.0
29.1794 1199.0
29.2462 1212.0
29.3131 1187.0
29.3799 1230.0
29.4468 1177.0
29.5136 1161.0
29.5804 1216.0
29.6473 1265.0
29.7141 1324.0
29.781 1266.0
29.8478 1228.0
29.9147 1250.0
29.9815 1224.0
30.0484 1238.0
30.1152 1268.0
30.182 1224.0
30.2489 1255.0
30.3157 1246.0
30.3826 1307.0
30.4494 1345.0
30.5163 1407.0
30.5831 1521.0
30.65 1860.0
30.7168 2391.0
30.7837 2892.0
30.8505 2957.0
30.9173 2575.0
30.9842 2003.0
31.051 2005.0
31.1179 1914.0
31.1847 2040.0
31.2516 1868.0
31.3184 1556.0
31.3853 1494.0
31.4521 1284.0
31.519 1247.0
31.5858 1229.0
31.6526 1166.0
31.7195 1225.0
31.7863 1244.0
31.8532 1144.0
31.92 1198.0
31.9869 1105.0
32.0537 1015.0
32.1206 1066.0
32.1874 1058.0
32.2542 992.0
32.3211 1072.0
32.3879 1058.0
32.4548 1072.0
32.5216 1100.0
32.5885 1079.0
32.6553 1051.0
32.7222 974.0
32.789 967.0
32.8559 1013.0
32.9227 939.0
32.9895 982.0
33.0564 933.0
33.1232 941.0
33.1901 960.0
33.2569 933.0
33.3238 957.0
33.3906 955.0
33.4575 993.0
33.5243 1025.0
33.5911 1048.0
33.658 974.0
33.7248 985.0
33.7917 985.0
33.8585 963.0
33.9254 903.0
33.9922 900.0
34.0591 885.0
34.1259 898.0
34.1928 910.0
34.2596 916.0
34.3264 840.0
34.3933 919.0
34.4601 928.0
34.527 954.0
34.5938 1012.0
34.6607 1009.0
34.7275 1131.0
34.7944 1127.0
34.8612 1054.0
34.928 978.0
34.9949 912.0
35.0617 923.0
35.1286 934.0
35.1954 959.0
35.2623 842.0
35.3291 922.0
35.396 829.0
35.4628 853.0
35.5297 828.0
35.5965 849.0
35.6633 802.0
35.7302 829.0
35.797 838.0
35.8639 840.0
35.9307 837.0
35.9976 862.0
36.0644 879.0
36.1313 966.0
36.1981 909.0
36.265 886.0
36.3318 838.0
36.3986 797.0
36.4655 818.0
36.5323 793.0
36.5992 770.0
36.666 766.0
36.7329 776.0
36.7997 786.0
36.8666 815.0
36.9334 786.0
37.0002 799.0
37.0671 786.0
37.1339 800.0
37.2008 775.0
37.2676 746.0
37.3345 726.0
37.4013 736.0
37.4682 691.0
37.535 729.0
37.6019 794.0
37.6687 764.0
37.7355 801.0
37.8024 768.0
37.8692 707.0
37.9361 723.0
38.0029 766.0
38.0698 739.0
38.1366 736.0
38.2035 731.0
38.2703 710.0
38.3371 727.0
38.404 707.0
38.4708 729.0
38.5377 710.0
38.6045 729.0
38.6714 717.0
38.7382 744.0
38.8051 732.0
38.8719 767.0
38.9388 685.0
39.0056 700.0
39.0724 716.0
39.1393 668.0
39.2061 739.0
39.273 782.0
39.3398 748.0
39.4067 689.0
39.4735 720.0
39.5404 698.0
39.6072 703.0
39.6741 667.0
39.7409 684.0
39.8077 714.0
39.8746 727.0
39.9414 719.0
40.0083 698.0
40.0751 682.0
40.142 727.0
40.2088 653.0
40.2757 678.0
40.3425 644.0
40.4093 630.0
40.4762 594.0
40.543 717.0
40.6099 688.0
40.6767 680.0
40.7436 666.0
40.8104 657.0
40.8773 620.0
40.9441 634.0
41.011 698.0
41.0778 613.0
41.1446 665.0
41.2115 673.0
41.2783 617.0
41.3452 651.0
41.412 662.0
41.4789 654.0
41.5457 659.0
41.6126 643.0
41.6794 603.0
41.7462 652.0
41.8131 633.0
41.8799 650.0
41.9468 611.0
42.0136 712.0
42.0805 665.0
42.1473 622.0
42.2142 682.0
42.281 646.0
42.3479 679.0
42.4147 666.0
42.4815 660.0
42.5484 649.0
42.6152 648.0
42.6821 710.0
42.7489 660.0
42.8158 650.0
42.8826 644.0
42.9495 717.0
43.0163 660.0
43.0831 637.0
43.15 651.0
43.2168 699.0
43.2837 670.0
43.3505 705.0
43.4174 644.0
43.4842 719.0
43.5511 639.0
43.6179 771.0
43.6848 712.0
43.7516 691.0
43.8184 683.0
43.8853 701.0
43.9521 679.0
44.019 688.0
44.0858 639.0
44.1527 668.0
44.2195 653.0
44.2864 656.0
44.3532 660.0
44.4201 692.0
44.4869 665.0
44.5537 650.0
44.6206 625.0
44.6874 639.0
44.7543 649.0
44.8211 641.0
44.888 605.0
44.9548 664.0
45.0217 659.0
45.0885 675.0
45.1553 628.0
45.2222 647.0
45.289 665.0
45.3559 658.0
45.4227 658.0
45.4896 669.0
45.5564 668.0
45.6233 693.0
45.6901 667.0
45.757 668.0
45.8238 665.0
45.8906 734.0
45.9575 668.0
46.0243 698.0
46.0912 704.0
46.158 692.0
46.2249 648.0
46.2917 717.0
46.3586 658.0
46.4254 643.0
46.4922 589.0
46.5591 634.0
46.6259 709.0
46.6928 623.0
46.7596 665.0
46.8265 662.0
46.8933 720.0
46.9602 657.0
47.027 678.0
47.0939 602.0
47.1607 690.0
47.2275 652.0
47.2944 637.0
47.3612 590.0
47.4281 631.0
47.4949 591.0
47.5618 602.0
47.6286 596.0
47.6955 591.0
47.7623 619.0
47.8291 654.0
47.896 616.0
47.9628 654.0
48.0297 660.0
48.0965 618.0
48.1634 607.0
48.2302 645.0
48.2971 621.0
48.3639 647.0
48.4308 609.0
48.4976 599.0
48.5644 613.0
48.6313 628.0
48.6981 587.0
48.765 616.0
48.8318 606.0
48.8987 627.0
48.9655 629.0
49.0324 752.0
49.0992 693.0
49.1661 737.0
49.2329 689.0
49.2997 685.0
49.3666 656.0
49.4334 670.0
49.5003 620.0
49.5671 658.0
49.634 598.0
49.7008 598.0
49.7677 607.0
49.8345 604.0
49.9013 600.0
49.9682 580.0
50.035 586.0
50.1019 614.0
50.1687 618.0
50.2356 609.0
50.3024 594.0
50.3693 592.0
50.4361 642.0
50.503 582.0
50.5698 570.0
50.6366 636.0
50.7035 588.0
50.7703 663.0
50.8372 678.0
50.904 736.0
50.9709 711.0
51.0377 663.0
51.1046 666.0
51.1714 664.0
51.2382 638.0
51.3051 587.0
51.3719 634.0
51.4388 612.0
51.5056 618.0
51.5725 633.0
51.6393 597.0
51.7062 570.0
51.773 601.0
51.8399 582.0
51.9067 572.0
51.9735 572.0
52.0404 592.0
52.1072 580.0
52.1741 564.0
52.2409 602.0
52.3078 558.0
52.3746 602.0
52.4415 579.0
52.5083 543.0
52.5751 491.0
52.642 573.0
52.7088 570.0
52.7757 564.0
52.8425 556.0
52.9094 548.0
52.9762 594.0
53.0431 581.0
53.1099 611.0
53.1768 595.0
53.2436 544.0
53.3104 611.0
53.3773 597.0
53.4441 617.0
53.511 607.0
53.5778 629.0
53.6447 600.0
53.7115 644.0
53.7784 575.0
53.8452 615.0
53.9121 598.0
53.9789 620.0
54.0457 596.0
54.1126 542.0
54.1794 557.0
54.2463 601.0
54.3131 553.0
54.38 565.0
54.4468 558.0
54.5137 578.0
54.5805 625.0
54.6473 591.0
54.7142 547.0
54.781 589.0
54.8479 595.0
54.9147 576.0
54.9816 553.0
55.0484 572.0
55.1153 560.0
55.1821 599.0
55.249 594.0
55.3158 563.0
55.3826 618.0
55.4495 569.0
55.5163 542.0
55.5832 557.0
55.65 555.0
55.7169 549.0
55.7837 551.0
55.8506 521.0
55.9174 590.0
55.9842 587.0
56.0511 575.0
56.1179 568.0
56.1848 607.0
56.2516 580.0
56.3185 621.0
56.3853 623.0
56.4522 566.0
56.519 573.0
56.5859 621.0
56.6527 620.0
56.7195 598.0
56.7864 555.0
56.8532 578.0
56.9201 568.0
56.9869 587.0
57.0538 579.0
57.1206 533.0
57.1875 575.0
57.2543 583.0
57.3212 568.0
57.388 563.0
57.4548 582.0
57.5217 568.0
57.5885 572.0
57.6554 585.0
57.7222 538.0
57.7891 569.0
57.8559 547.0
57.9228 534.0
57.9896 512.0
58.0564 554.0
58.1233 606.0
58.1901 549.0
58.257 506.0
58.3238 584.0
58.3907 543.0
58.4575 568.0
58.5244 528.0
58.5912 561.0
58.6581 509.0
58.7249 592.0
58.7917 548.0
58.8586 563.0
58.9254 554.0
58.9923 604.0
59.0591 534.0
59.126 570.0
59.1928 549.0
59.2597 585.0
59.3265 565.0
59.3933 553.0
59.4602 625.0
59.527 536.0
59.5939 525.0
59.6607 595.0
59.7276 601.0
59.7944 649.0
59.8613 611.0
59.9281 642.0
59.995 571.0
60.0618 578.0
60.1286 581.0
60.1955 591.0
60.2623 583.0
60.3292 582.0
60.396 567.0
60.4629 574.0
60.5297 520.0
60.5966 596.0
60.6634 551.0
60.7302 604.0
60.7971 589.0
60.8639 556.0
60.9308 610.0
60.9976 581.0
61.0645 537.0
61.1313 539.0
61.1982 609.0
61.265 509.0
61.3319 560.0
61.3987 584.0
61.4655 556.0
61.5324 604.0
61.5992 576.0
61.6661 591.0
61.7329 566.0
61.7998 589.0
61.8666 615.0
61.9335 579.0
62.0003 576.0
62.0672 555.0
62.134 621.0
62.2008 575.0
62.2677 585.0
62.3345 537.0
62.4014 584.0
62.4682 540.0
62.5351 567.0
62.6019 605.0
62.6688 570.0
62.7356 526.0
62.8024 588.0
62.8693 586.0
62.9361 598.0
63.003 516.0
63.0698 589.0
63.1367 564.0
63.2035 571.0
63.2704 533.0
63.3372 602.0
63.4041 566.0
63.4709 550.0
63.5377 566.0
63.6046 604.0
63.6714 558.0
63.7383 549.0
63.8051 563.0
63.872 564.0
63.9388 544.0
64.0057 595.0
64.0725 578.0
64.1393 498.0
64.2062 558.0
64.273 597.0
64.3399 563.0
64.4067 570.0
64.4736 550.0
64.5404 567.0
64.6073 580.0
64.6741 582.0
64.741 564.0
64.8078 495.0
64.8746 581.0
64.9415 578.0
65.0083 548.0
65.0752 559.0
65.142 506.0
65.2089 554.0
65.2757 554.0
65.3426 584.0
65.4094 580.0
65.4762 573.0
65.5431 573.0
65.6099 566.0
65.6768 620.0
65.7436 545.0
65.8105 553.0
65.8773 595.0
65.9442 583.0
66.011 600.0
66.0779 618.0
66.1447 580.0
66.2115 628.0
66.2784 625.0
66.3452 625.0
66.4121 627.0
66.4789 612.0
66.5458 610.0
66.6126 614.0
66.6795 634.0
66.7463 664.0
66.8132 681.0
66.88 713.0
66.9468 647.0
67.0137 658.0
67.0805 672.0
67.1474 682.0
67.2142 682.0
67.2811 548.0
67.3479 617.0
67.4148 614.0
67.4816 612.0
67.5484 592.0
67.6153 587.0
67.6821 587.0
67.749 582.0
67.8158 552.0
67.8827 607.0
67.9495 565.0
68.0164 556.0
68.0832 540.0
68.1501 572.0
68.2169 571.0
68.2837 538.0
68.3506 603.0
68.4174 576.0
68.4843 513.0
68.5511 553.0
68.618 529.0
68.6848 532.0
68.7517 537.0
68.8185 543.0
68.8853 523.0
68.9522 524.0
69.019 513.0
69.0859 528.0
69.1527 504.0
69.2196 524.0
69.2864 481.0
69.3533 541.0
69.4201 549.0
69.487 550.0
69.5538 572.0
69.6206 550.0
69.6875 541.0
69.7543 536.0
69.8212 510.0
69.888 535.0
69.9549 551.0
70.0217 494.0
70.0886 542.0
70.1554 509.0
70.2222 469.0
70.2891 520.0
70.3559 569.0
70.4228 521.0
70.4896 517.0
70.5565 516.0
70.6233 509.0
70.6902 567.0
70.757 542.0
70.8239 533.0
70.8907 506.0
70.9575 542.0
71.0244 480.0
71.0912 504.0
71.1581 483.0
71.2249 533.0
71.2918 513.0
71.3586 511.0
71.4255 553.0
71.4923 493.0
71.5592 564.0
71.626 506.0
71.6928 516.0
71.7597 504.0
71.8265 491.0
71.8934 566.0
71.9602 500.0
72.0271 518.0
72.0939 488.0
72.1608 492.0
72.2276 497.0
72.2944 523.0
72.3613 534.0
72.4281 454.0
72.495 443.0
72.5618 491.0
72.6287 465.0
72.6955 489.0
72.7624 492.0
72.8292 522.0
72.8961 482.0
72.9629 500.0
73.0297 467.0
73.0966 498.0
73.1634 490.0
73.2303 531.0
73.2971 457.0
73.364 434.0
73.4308 485.0
73.4977 476.0
73.5645 457.0
73.6313 493.0
73.6982 500.0
73.765 496.0
73.8319 464.0
73.8987 517.0
73.9656 476.0
74.0324 435.0
74.0993 502.0
74.1661 474.0
74.233 473.0
74.2998 510.0
74.3666 493.0
74.4335 475.0
74.5003 488.0
74.5672 465.0
74.634 445.0
74.7009 467.0
74.7677 459.0
74.8346 524.0
74.9014 489.0
74.9683 455.0
75.0351 493.0
75.1019 506.0
75.1688 455.0
75.2356 504.0
75.3025 448.0
75.3693 455.0
75.4362 482.0
75.503 459.0
75.5699 461.0
75.6367 465.0
75.7035 465.0
75.7704 461.0
75.8372 450.0
75.9041 512.0
75.9709 494.0
76.0378 504.0
76.1046 460.0
76.1715 469.0
76.2383 509.0
76.3052 502.0
76.372 439.0
76.4388 451.0
76.5057 492.0
76.5725 482.0
76.6394 471.0
76.7062 489.0
76.7731 461.0
76.8399 436.0
76.9068 447.0
76.9736 464.0
77.0404 482.0
77.1073 457.0
77.1741 471.0
77.241 481.0
77.3078 466.0
77.3747 459.0
77.4415 459.0
77.5084 466.0
77.5752 436.0
77.6421 486.0
77.7089 436.0
77.7757 463.0
77.8426 442.0
77.9094 466.0
77.9763 428.0
78.0431 464.0
78.11 461.0
78.1768 456.0
78.2437 440.0
78.3105 433.0
78.3773 441.0
78.4442 475.0
78.511 426.0
78.5779 458.0
78.6447 443.0
78.7116 444.0
78.7784 478.0
78.8453 466.0
78.9121 472.0
78.979 424.0
79.0458 408.0
79.1126 402.0
79.1795 433.0
79.2463 444.0
79.3132 426.0
79.38 424.0
79.4469 419.0
79.5137 434.0
79.5806 462.0
79.6474 446.0
79.7143 451.0
79.7811 459.0
79.8479 404.0
79.9148 432.0
79.9816 462.0
80.0485 433.0
80.1153 428.0
80.1822 415.0
80.249 454.0
80.3159 464.0
80.3827 457.0
80.4495 453.0
80.5164 410.0
80.5832 445.0
80.6501 410.0
80.7169 429.0
80.7838 430.0
80.8506 438.0
80.9175 406.0
80.9843 400.0
81.0512 427.0
81.118 407.0
81.1848 412.0
81.2517 413.0
81.3185 414.0
81.3854 402.0
81.4522 429.0
81.5191 395.0
81.5859 409.0
81.6528 398.0
81.7196 384.0
81.7864 365.0
81.8533 384.0
81.9201 399.0
81.987 408.0
82.0538 401.0
82.1207 378.0
82.1875 384.0
82.2544 376.0
82.3212 366.0
82.3881 400.0
82.4549 375.0
82.5217 365.0
82.5886 406.0
82.6554 379.0
82.7223 385.0
82.7891 386.0
82.856 364.0
82.9228 397.0
82.9897 344.0
83.0565 400.0
83.1233 383.0
83.1902 381.0
83.257 344.0
83.3239 340.0
83.3907 347.0
83.4576 383.0
83.5244 341.0
83.5913 362.0
83.6581 350.0
83.725 366.0
83.7918 371.0
83.8586 309.0
83.9255 325.0
83.9923 356.0
84.0592 352.0
84.126 348.0
84.1929 369.0
84.2597 376.0
84.3266 372.0
84.3934 329.0
84.4603 326.0
84.5271 341.0
84.5939 328.0
84.6608 340.0
84.7276 315.0
84.7945 342.0
84.8613 342.0
84.9282 336.0
84.995 353.0
85.0619 338.0
85.1287 335.0
85.1955 321.0
85.2624 337.0
85.3292 329.0
85.3961 295.0
85.4629 329.0
85.5298 307.0
85.5966 297.0
85.6635 318.0
85.7303 324.0
85.7972 320.0
85.864 300.0
85.9308 330.0
85.9977 322.0
86.0645 301.0
86.1314 311.0
86.1982 264.0
86.2651 311.0
86.3319 300.0
86.3988 333.0
86.4656 323.0
86.5324 301.0
86.5993 349.0
86.6661 354.0
86.733 292.0
86.7998 315.0
86.8667 272.0
86.9335 277.0
87.0004 303.0
87.0672 278.0
87.1341 298.0
87.2009 277.0
87.2677 302.0
87.3346 288.0
87.4014 316.0
87.4683 307.0
87.5351 298.0
87.602 298.0
87.6688 323.0
87.7357 306.0
87.8025 267.0
87.8693 298.0
87.9362 274.0
88.003 294.0
88.0699 263.0
88.1367 283.0
88.2036 311.0
88.2704 284.0
88.3373 325.0
88.4041 310.0
88.471 283.0
88.5378 316.0
88.6046 284.0
88.6715 279.0
88.7383 295.0
88.8052 276.0
88.872 291.0
88.9389 302.0
89.0057 317.0
89.0726 304.0
89.1394 278.0
89.2063 255.0
89.2731 308.0
89.3399 291.0
89.4068 300.0
89.4736 246.0
89.5405 305.0
89.6073 289.0
89.6742 274.0
89.741 266.0
89.8079 267.0
89.8747 272.0
89.9415 274.0