File: code/XRD_Analysis/External Sources/Alex_SAPO/20220623_La-Ni 2-1_1000C 6h air_5C ramp_20210523.xy
4.98146 1473.0
5.0483 1458.0
5.11515 1367.0
5.18199 1346.0
5.24884 1260.0
5.31568 1353.0
5.38253 1250.0
5.44937 1320.0
5.51622 1262.0
5.58306 1246.0
5.64991 1231.0
5.71675 1271.0
5.7836 1203.0
5.85044 1168.0
5.91729 1166.0
5.98413 1206.0
6.05098 1117.0
6.11782 1178.0
6.18467 1121.0
6.25151 1086.0
6.31836 1068.0
6.3852 1079.0
6.45205 1069.0
6.51889 1116.0
6.58574 1075.0
6.65258 1045.0
6.71943 1005.0
6.78627 1080.0
6.85312 967.0
6.91996 1037.0
6.98681 977.0
7.05365 946.0
7.1205 981.0
7.18734 1031.0
7.25419 1101.0
7.32103 1517.0
7.38788 2658.0
7.45472 1646.0
7.52157 1071.0
7.58841 935.0
7.65526 897.0
7.7221 833.0
7.78895 859.0
7.85579 943.0
7.92264 867.0
7.98948 895.0
8.05633 898.0
8.12317 898.0
8.19002 889.0
8.25686 844.0
8.32371 840.0
8.39055 895.0
8.4574 824.0
8.52424 877.0
8.59109 814.0
8.65793 826.0
8.72478 852.0
8.79162 850.0
8.85847 837.0
8.92532 856.0
8.99216 824.0
9.05901 815.0
9.12585 906.0
9.1927 972.0
9.25954 1011.0
9.32639 1317.0
9.39323 2390.0
9.46008 6242.0
9.52692 11485.0
9.59377 7667.0
9.66061 2558.0
9.72746 1243.0
9.7943 1042.0
9.86115 1069.0
9.92799 1000.0
9.99484 981.0
10.0617 885.0
10.1285 910.0
10.1954 930.0
10.2622 934.0
10.3291 816.0
10.3959 911.0
10.4628 845.0
10.5296 945.0
10.5964 882.0
10.6633 870.0
10.7301 851.0
10.797 857.0
10.8638 896.0
10.9307 864.0
10.9975 857.0
11.0644 845.0
11.1312 814.0
11.198 804.0
11.2649 763.0
11.3317 836.0
11.3986 788.0
11.4654 768.0
11.5323 747.0
11.5991 801.0
11.666 732.0
11.7328 764.0
11.7997 728.0
11.8665 760.0
11.9333 751.0
12.0002 750.0
12.067 743.0
12.1339 708.0
12.2007 762.0
12.2676 700.0
12.3344 732.0
12.4013 759.0
12.4681 763.0
12.5349 699.0
12.6018 716.0
12.6686 741.0
12.7355 852.0
12.8023 1322.0
12.8692 2131.0
12.936 2962.0
13.0029 2195.0
13.0697 1019.0
13.1366 761.0
13.2034 808.0
13.2702 814.0
13.3371 844.0
13.4039 992.0
13.4708 1024.0
13.5376 934.0
13.6045 747.0
13.6713 677.0
13.7382 637.0
13.805 585.0
13.8719 663.0
13.9387 772.0
14.0055 748.0
14.0724 758.0
14.1392 644.0
14.2061 692.0
14.2729 604.0
14.3398 600.0
14.4066 650.0
14.4735 689.0
14.5403 644.0
14.6071 600.0
14.674 639.0
14.7408 704.0
14.8077 841.0
14.8745 829.0
14.9414 751.0
15.0082 631.0
15.0751 664.0
15.1419 636.0
15.2088 664.0
15.2756 654.0
15.3424 658.0
15.4093 653.0
15.4761 643.0
15.543 716.0
15.6098 625.0
15.6767 721.0
15.7435 730.0
15.8104 677.0
15.8772 711.0
15.944 788.0
16.0109 1198.0
16.0777 2244.0
16.1446 2720.0
16.2114 1631.0
16.2783 903.0
16.3451 810.0
16.412 729.0
16.4788 799.0
16.5457 820.0
16.6125 848.0
16.6793 924.0
16.7462 997.0
16.813 1121.0
16.8799 1225.0
16.9467 1246.0
17.0136 1282.0
17.0804 1242.0
17.1473 1157.0
17.2141 1073.0
17.2809 978.0
17.3478 1024.0
17.4146 945.0
17.4815 913.0
17.5483 933.0
17.6152 917.0
17.682 990.0
17.7489 1114.0
17.8157 1149.0
17.8826 1072.0
17.9494 894.0
18.0162 853.0
18.0831 756.0
18.1499 777.0
18.2168 793.0
18.2836 758.0
18.3505 793.0
18.4173 770.0
18.4842 771.0
18.551 731.0
18.6179 797.0
18.6847 761.0
18.7515 820.0
18.8184 876.0
18.8852 793.0
18.9521 851.0
19.0189 1017.0
19.0858 1369.0
19.1526 1390.0
19.2195 1162.0
19.2863 1002.0
19.3531 908.0
19.42 837.0
19.4868 896.0
19.5537 960.0
19.6205 1409.0
19.6874 1677.0
19.7542 1399.0
19.8211 1058.0
19.8879 994.0
19.9548 1019.0
20.0216 977.0
20.0884 1009.0
20.1553 1094.0
20.2221 1151.0
20.289 1170.0
20.3558 1132.0
20.4227 1191.0
20.4895 1226.0
20.5564 1507.0
20.6232 2207.0
20.69 3852.0
20.7569 3852.0
20.8237 2706.0
20.8906 1690.0
20.9574 1427.0
21.0243 1500.0
21.0911 1957.0
21.158 2956.0
21.2248 2613.0
21.2917 1960.0
21.3585 1867.0
21.4253 1841.0
21.4922 1801.0
21.559 1488.0
21.6259 1273.0
21.6927 1080.0
21.7596 1034.0
21.8264 939.0
21.8933 989.0
21.9601 914.0
22.0269 1083.0
22.0938 1056.0
22.1606 1065.0
22.2275 1163.0
22.2943 1938.0
22.3612 3512.0
22.428 2947.0
22.4949 1853.0
22.5617 1259.0
22.6286 1168.0
22.6954 1071.0
22.7622 998.0
22.8291 1063.0
22.8959 1113.0
22.9628 1162.0
23.0296 1170.0
23.0965 1277.0
23.1633 1596.0
23.2302 1792.0
23.297 1486.0
23.3639 1244.0
23.4307 1187.0
23.4975 1153.0
23.5644 1241.0
23.6312 1239.0
23.6981 1268.0
23.7649 1290.0
23.8318 1315.0
23.8986 1425.0
23.9655 1425.0
24.0323 1450.0
24.0991 1515.0
24.166 1422.0
24.2328 1434.0
24.2997 1388.0
24.3665 1428.0
24.4334 1449.0
24.5002 1425.0
24.5671 1428.0
24.6339 1372.0
24.7008 1346.0
24.7676 1461.0
24.8344 1563.0
24.9013 1586.0
24.9681 1624.0
25.035 1691.0
25.1018 1611.0
25.1687 1502.0
25.2355 1485.0
25.3024 1373.0
25.3692 1340.0
25.436 1344.0
25.5029 1430.0
25.5697 1398.0
25.6366 1328.0
25.7034 1393.0
25.7703 1773.0
25.8371 2116.0
25.904 2200.0
25.9708 2333.0
26.0377 2555.0
26.1045 2671.0
26.1713 2273.0
26.2382 1817.0
26.305 1548.0
26.3719 1477.0
26.4387 1488.0
26.5056 1461.0
26.5724 1470.0
26.6393 1363.0
26.7061 1459.0
26.773 1351.0
26.8398 1301.0
26.9066 1339.0
26.9735 1349.0
27.0403 1258.0
27.1072 1357.0
27.174 1241.0
27.2409 1328.0
27.3077 1285.0
27.3746 1206.0
27.4414 1219.0
27.5082 1226.0
27.5751 1260.0
27.6419 1316.0
27.7088 1414.0
27.7756 1501.0
27.8425 1574.0
27.9093 1444.0
27.9762 1390.0
28.043 1324.0
28.1099 1410.0
28.1767 1569.0
28.2435 1569.0
28.3104 1570.0
28.3772 1492.0
28.4441 1440.0
28.5109 1332.0
28.5778 1379.0
28.6446 1286.0
28.7115 1349.0
28.7783 1303.0
28.8451 1286.0
28.912 1426.0
28.9788 1652.0
29.0457 1850.0
29.1125 1687.0
29.1794 1352.0
29.2462 1350.0
29.3131 1319.0
29.3799 1293.0
29.4468 1351.0
29.5136 1317.0
29.5804 1464.0
29.6473 1554.0
29.7141 1726.0
29.781 1626.0
29.8478 1720.0
29.9147 1992.0
29.9815 2119.0
30.0484 1996.0
30.1152 1918.0
30.182 1781.0
30.2489 1848.0
30.3157 1885.0
30.3826 1900.0
30.4494 2009.0
30.5163 2075.0
30.5831 2204.0
30.65 2257.0
30.7168 2424.0
30.7837 2730.0
30.8505 2866.0
30.9173 2889.0
30.9842 2822.0
31.051 2818.0
31.1179 3006.0
31.1847 3292.0
31.2516 3225.0
31.3184 2834.0
31.3853 2548.0
31.4521 2176.0
31.519 1788.0
31.5858 1784.0
31.6526 1673.0
31.7195 1612.0
31.7863 1668.0
31.8532 1708.0
31.92 1700.0
31.9869 1629.0
32.0537 1554.0
32.1206 1473.0
32.1874 1496.0
32.2542 1371.0
32.3211 1402.0
32.3879 1495.0
32.4548 1386.0
32.5216 1422.0
32.5885 1492.0
32.6553 1429.0
32.7222 1399.0
32.789 1254.0
32.8559 1313.0
32.9227 1279.0
32.9895 1189.0
33.0564 1206.0
33.1232 1132.0
33.1901 1097.0
33.2569 1106.0
33.3238 1076.0
33.3906 1132.0
33.4575 1160.0
33.5243 1145.0
33.5911 1129.0
33.658 1238.0
33.7248 1207.0
33.7917 1099.0
33.8585 1006.0
33.9254 1053.0
33.9922 997.0
34.0591 1083.0
34.1259 989.0
34.1928 918.0
34.2596 991.0
34.3264 1064.0
34.3933 1315.0
34.4601 1285.0
34.527 1287.0
34.5938 1082.0
34.6607 1038.0
34.7275 997.0
34.7944 984.0
34.8612 1019.0
34.928 1020.0
34.9949 909.0
35.0617 853.0
35.1286 825.0
35.1954 906.0
35.2623 882.0
35.3291 909.0
35.396 841.0
35.4628 884.0
35.5297 954.0
35.5965 851.0
35.6633 841.0
35.7302 881.0
35.797 800.0
35.8639 784.0
35.9307 772.0
35.9976 818.0
36.0644 824.0
36.1313 931.0
36.1981 929.0
36.265 825.0
36.3318 849.0
36.3986 790.0
36.4655 816.0
36.5323 794.0
36.5992 727.0
36.666 732.0
36.7329 745.0
36.7997 720.0
36.8666 726.0
36.9334 751.0
37.0002 800.0
37.0671 764.0
37.1339 719.0
37.2008 729.0
37.2676 714.0
37.3345 646.0
37.4013 676.0
37.4682 678.0
37.535 644.0
37.6019 694.0
37.6687 708.0
37.7355 745.0
37.8024 912.0
37.8692 962.0
37.9361 851.0
38.0029 774.0
38.0698 734.0
38.1366 692.0
38.2035 654.0
38.2703 665.0
38.3371 603.0
38.404 651.0
38.4708 704.0
38.5377 653.0
38.6045 592.0
38.6714 595.0
38.7382 653.0
38.8051 656.0
38.8719 682.0
38.9388 663.0
39.0056 652.0
39.0724 626.0
39.1393 677.0
39.2061 735.0
39.273 704.0
39.3398 720.0
39.4067 720.0
39.4735 697.0
39.5404 689.0
39.6072 696.0
39.6741 681.0
39.7409 674.0
39.8077 659.0
39.8746 674.0
39.9414 654.0
40.0083 703.0
40.0751 679.0
40.142 643.0
40.2088 678.0
40.2757 710.0
40.3425 729.0
40.4093 691.0
40.4762 672.0
40.543 627.0
40.6099 609.0
40.6767 665.0
40.7436 659.0
40.8104 667.0
40.8773 701.0
40.9441 643.0
41.011 645.0
41.0778 622.0
41.1446 633.0
41.2115 677.0
41.2783 639.0
41.3452 667.0
41.412 670.0
41.4789 717.0
41.5457 680.0
41.6126 653.0
41.6794 659.0
41.7462 616.0
41.8131 675.0
41.8799 647.0
41.9468 661.0
42.0136 663.0
42.0805 703.0
42.1473 717.0
42.2142 744.0
42.281 665.0
42.3479 719.0
42.4147 672.0
42.4815 605.0
42.5484 676.0
42.6152 623.0
42.6821 713.0
42.7489 654.0
42.8158 651.0
42.8826 660.0
42.9495 657.0
43.0163 693.0
43.0831 745.0
43.15 722.0
43.2168 731.0
43.2837 724.0
43.3505 732.0
43.4174 751.0
43.4842 719.0
43.5511 722.0
43.6179 745.0
43.6848 741.0
43.7516 693.0
43.8184 736.0
43.8853 711.0
43.9521 678.0
44.019 675.0
44.0858 643.0
44.1527 682.0
44.2195 644.0
44.2864 663.0
44.3532 654.0
44.4201 667.0
44.4869 635.0
44.5537 620.0
44.6206 622.0
44.6874 668.0
44.7543 675.0
44.8211 627.0
44.888 647.0
44.9548 627.0
45.0217 661.0
45.0885 653.0
45.1553 614.0
45.2222 639.0
45.289 617.0
45.3559 661.0
45.4227 660.0
45.4896 599.0
45.5564 627.0
45.6233 657.0
45.6901 656.0
45.757 651.0
45.8238 603.0
45.8906 580.0
45.9575 660.0
46.0243 571.0
46.0912 615.0
46.158 620.0
46.2249 604.0
46.2917 568.0
46.3586 594.0
46.4254 589.0
46.4922 597.0
46.5591 612.0
46.6259 613.0
46.6928 598.0
46.7596 591.0
46.8265 623.0
46.8933 613.0
46.9602 598.0
47.027 623.0
47.0939 617.0
47.1607 663.0
47.2275 643.0
47.2944 657.0
47.3612 688.0
47.4281 627.0
47.4949 676.0
47.5618 682.0
47.6286 742.0
47.6955 721.0
47.7623 723.0
47.8291 660.0
47.896 645.0
47.9628 646.0
48.0297 674.0
48.0965 590.0
48.1634 667.0
48.2302 670.0
48.2971 646.0
48.3639 613.0
48.4308 651.0
48.4976 635.0
48.5644 619.0
48.6313 651.0
48.6981 668.0
48.765 673.0
48.8318 689.0
48.8987 657.0
48.9655 656.0
49.0324 697.0
49.0992 760.0
49.1661 782.0
49.2329 856.0
49.2997 825.0
49.3666 803.0
49.4334 801.0
49.5003 713.0
49.5671 708.0
49.634 696.0
49.7008 693.0
49.7677 716.0
49.8345 679.0
49.9013 690.0
49.9682 699.0
50.035 672.0
50.1019 653.0
50.1687 685.0
50.2356 679.0
50.3024 642.0
50.3693 707.0
50.4361 675.0
50.503 664.0
50.5698 684.0
50.6366 636.0
50.7035 682.0
50.7703 698.0
50.8372 690.0
50.904 727.0
50.9709 756.0
51.0377 716.0
51.1046 735.0
51.1714 709.0
51.2382 758.0
51.3051 682.0
51.3719 709.0
51.4388 715.0
51.5056 669.0
51.5725 678.0
51.6393 649.0
51.7062 629.0
51.773 661.0
51.8399 620.0
51.9067 626.0
51.9735 633.0
52.0404 643.0
52.1072 669.0
52.1741 662.0
52.2409 667.0
52.3078 632.0
52.3746 598.0
52.4415 598.0
52.5083 636.0
52.5751 617.0
52.642 613.0
52.7088 643.0
52.7757 647.0
52.8425 612.0
52.9094 573.0
52.9762 595.0
53.0431 606.0
53.1099 618.0
53.1768 619.0
53.2436 615.0
53.3104 632.0
53.3773 587.0
53.4441 626.0
53.511 637.0
53.5778 613.0
53.6447 600.0
53.7115 670.0
53.7784 645.0
53.8452 686.0
53.9121 679.0
53.9789 622.0
54.0457 605.0
54.1126 604.0
54.1794 567.0
54.2463 637.0
54.3131 607.0
54.38 606.0
54.4468 625.0
54.5137 611.0
54.5805 566.0
54.6473 621.0
54.7142 646.0
54.781 637.0
54.8479 650.0
54.9147 604.0
54.9816 639.0
55.0484 642.0
55.1153 632.0
55.1821 578.0
55.249 580.0
55.3158 631.0
55.3826 638.0
55.4495 656.0
55.5163 646.0
55.5832 663.0
55.65 719.0
55.7169 684.0
55.7837 653.0
55.8506 689.0
55.9174 656.0
55.9842 628.0
56.0511 652.0
56.1179 633.0
56.1848 604.0
56.2516 644.0
56.3185 616.0
56.3853 641.0
56.4522 648.0
56.519 654.0
56.5859 693.0
56.6527 722.0
56.7195 690.0
56.7864 667.0
56.8532 685.0
56.9201 653.0
56.9869 619.0
57.0538 609.0
57.1206 634.0
57.1875 594.0
57.2543 552.0
57.3212 602.0
57.388 578.0
57.4548 648.0
57.5217 600.0
57.5885 578.0
57.6554 513.0
57.7222 504.0
57.7891 582.0
57.8559 575.0
57.9228 565.0
57.9896 585.0
58.0564 552.0
58.1233 589.0
58.1901 559.0
58.257 556.0
58.3238 566.0
58.3907 579.0
58.4575 588.0
58.5244 575.0
58.5912 629.0
58.6581 625.0
58.7249 669.0
58.7917 682.0
58.8586 650.0
58.9254 600.0
58.9923 598.0
59.0591 596.0
59.126 554.0
59.1928 545.0
59.2597 557.0
59.3265 525.0
59.3933 560.0
59.4602 552.0
59.527 589.0
59.5939 535.0
59.6607 578.0
59.7276 592.0
59.7944 583.0
59.8613 573.0
59.9281 582.0
59.995 639.0
60.0618 636.0
60.1286 587.0
60.1955 591.0
60.2623 598.0
60.3292 582.0
60.396 588.0
60.4629 603.0
60.5297 572.0
60.5966 625.0
60.6634 563.0
60.7302 584.0
60.7971 560.0
60.8639 589.0
60.9308 554.0
60.9976 578.0
61.0645 559.0
61.1313 557.0
61.1982 533.0
61.265 590.0
61.3319 516.0
61.3987 533.0
61.4655 572.0
61.5324 531.0
61.5992 576.0
61.6661 584.0
61.7329 591.0
61.7998 538.0
61.8666 605.0
61.9335 578.0
62.0003 529.0
62.0672 591.0
62.134 597.0
62.2008 555.0
62.2677 521.0
62.3345 503.0
62.4014 534.0
62.4682 590.0
62.5351 483.0
62.6019 552.0
62.6688 534.0
62.7356 557.0
62.8024 582.0
62.8693 564.0
62.9361 520.0
63.003 522.0
63.0698 557.0
63.1367 532.0
63.2035 509.0
63.2704 544.0
63.3372 544.0
63.4041 554.0
63.4709 543.0
63.5377 525.0
63.6046 528.0
63.6714 540.0
63.7383 506.0
63.8051 510.0
63.872 508.0
63.9388 568.0
64.0057 541.0
64.0725 494.0
64.1393 526.0
64.2062 511.0
64.273 535.0
64.3399 533.0
64.4067 475.0
64.4736 512.0
64.5404 512.0
64.6073 497.0
64.6741 531.0
64.741 521.0
64.8078 520.0
64.8746 532.0
64.9415 525.0
65.0083 541.0
65.0752 536.0
65.142 536.0
65.2089 505.0
65.2757 565.0
65.3426 534.0
65.4094 523.0
65.4762 542.0
65.5431 533.0
65.6099 566.0
65.6768 557.0
65.7436 563.0
65.8105 507.0
65.8773 518.0
65.9442 502.0
66.011 532.0
66.0779 513.0
66.1447 520.0
66.2115 504.0
66.2784 545.0
66.3452 532.0
66.4121 518.0
66.4789 542.0
66.5458 534.0
66.6126 564.0
66.6795 517.0
66.7463 553.0
66.8132 524.0
66.88 526.0
66.9468 554.0
67.0137 591.0
67.0805 581.0
67.1474 559.0
67.2142 594.0
67.2811 533.0
67.3479 563.0
67.4148 533.0
67.4816 566.0
67.5484 501.0
67.6153 550.0
67.6821 509.0
67.749 470.0
67.8158 564.0
67.8827 526.0
67.9495 467.0
68.0164 497.0
68.0832 548.0
68.1501 522.0
68.2169 485.0
68.2837 521.0
68.3506 533.0
68.4174 465.0
68.4843 548.0
68.5511 516.0
68.618 503.0
68.6848 494.0
68.7517 535.0
68.8185 509.0
68.8853 525.0
68.9522 533.0
69.019 514.0
69.0859 485.0
69.1527 536.0
69.2196 442.0
69.2864 486.0
69.3533 509.0
69.4201 520.0
69.487 466.0
69.5538 511.0
69.6206 550.0
69.6875 490.0
69.7543 563.0
69.8212 539.0
69.888 489.0
69.9549 490.0
70.0217 519.0
70.0886 472.0
70.1554 502.0
70.2222 496.0
70.2891 547.0
70.3559 540.0
70.4228 517.0
70.4896 556.0
70.5565 495.0
70.6233 545.0
70.6902 496.0
70.757 524.0
70.8239 529.0
70.8907 527.0
70.9575 511.0
71.0244 522.0
71.0912 502.0
71.1581 473.0
71.2249 536.0
71.2918 520.0
71.3586 524.0
71.4255 472.0
71.4923 490.0
71.5592 479.0
71.626 503.0
71.6928 507.0
71.7597 542.0
71.8265 508.0
71.8934 490.0
71.9602 485.0
72.0271 501.0
72.0939 495.0
72.1608 512.0
72.2276 508.0
72.2944 487.0
72.3613 508.0
72.4281 423.0
72.495 477.0
72.5618 465.0
72.6287 481.0
72.6955 494.0
72.7624 469.0
72.8292 486.0
72.8961 486.0
72.9629 479.0
73.0297 448.0
73.0966 482.0
73.1634 462.0
73.2303 495.0
73.2971 496.0
73.364 489.0
73.4308 475.0
73.4977 503.0
73.5645 489.0
73.6313 454.0
73.6982 450.0
73.765 469.0
73.8319 470.0
73.8987 434.0
73.9656 449.0
74.0324 463.0
74.0993 449.0
74.1661 426.0
74.233 449.0
74.2998 460.0
74.3666 463.0
74.4335 505.0
74.5003 475.0
74.5672 478.0
74.634 441.0
74.7009 442.0
74.7677 423.0
74.8346 470.0
74.9014 454.0
74.9683 461.0
75.0351 466.0
75.1019 454.0
75.1688 431.0
75.2356 469.0
75.3025 491.0
75.3693 489.0
75.4362 441.0
75.503 480.0
75.5699 410.0
75.6367 431.0
75.7035 465.0
75.7704 423.0
75.8372 434.0
75.9041 450.0
75.9709 489.0
76.0378 495.0
76.1046 485.0
76.1715 412.0
76.2383 466.0
76.3052 460.0
76.372 447.0
76.4388 482.0
76.5057 428.0
76.5725 459.0
76.6394 445.0
76.7062 450.0
76.7731 457.0
76.8399 460.0
76.9068 446.0
76.9736 426.0
77.0404 422.0
77.1073 454.0
77.1741 451.0
77.241 430.0
77.3078 412.0
77.3747 473.0
77.4415 413.0
77.5084 475.0
77.5752 426.0
77.6421 431.0
77.7089 453.0
77.7757 422.0
77.8426 403.0
77.9094 429.0
77.9763 403.0
78.0431 407.0
78.11 422.0
78.1768 397.0
78.2437 439.0
78.3105 402.0
78.3773 410.0
78.4442 409.0
78.511 385.0
78.5779 382.0
78.6447 451.0
78.7116 433.0
78.7784 394.0
78.8453 418.0
78.9121 385.0
78.979 410.0
79.0458 412.0
79.1126 393.0
79.1795 410.0
79.2463 442.0
79.3132 425.0
79.38 406.0
79.4469 360.0
79.5137 408.0
79.5806 394.0
79.6474 396.0
79.7143 386.0
79.7811 383.0
79.8479 409.0
79.9148 391.0
79.9816 406.0
80.0485 394.0
80.1153 363.0
80.1822 360.0
80.249 370.0
80.3159 355.0
80.3827 380.0
80.4495 417.0
80.5164 396.0
80.5832 400.0
80.6501 366.0
80.7169 391.0
80.7838 361.0
80.8506 358.0
80.9175 380.0
80.9843 382.0
81.0512 357.0
81.118 398.0
81.1848 373.0
81.2517 344.0
81.3185 392.0
81.3854 344.0
81.4522 384.0
81.5191 338.0
81.5859 329.0
81.6528 319.0
81.7196 333.0
81.7864 377.0
81.8533 350.0
81.9201 353.0
81.987 324.0
82.0538 321.0
82.1207 361.0
82.1875 352.0
82.2544 318.0
82.3212 338.0
82.3881 303.0
82.4549 347.0
82.5217 324.0
82.5886 337.0
82.6554 317.0
82.7223 336.0
82.7891 344.0
82.856 339.0
82.9228 341.0
82.9897 326.0
83.0565 333.0
83.1233 353.0
83.1902 341.0
83.257 319.0
83.3239 326.0
83.3907 301.0
83.4576 293.0
83.5244 347.0
83.5913 347.0
83.6581 328.0
83.725 298.0
83.7918 326.0
83.8586 344.0
83.9255 322.0
83.9923 319.0
84.0592 321.0
84.126 314.0
84.1929 279.0
84.2597 273.0
84.3266 306.0
84.3934 314.0
84.4603 335.0
84.5271 334.0
84.5939 337.0
84.6608 323.0
84.7276 263.0
84.7945 301.0
84.8613 313.0
84.9282 293.0
84.995 284.0
85.0619 284.0
85.1287 289.0
85.1955 336.0
85.2624 325.0
85.3292 284.0
85.3961 263.0
85.4629 306.0
85.5298 301.0
85.5966 316.0
85.6635 302.0
85.7303 325.0
85.7972 310.0
85.864 279.0
85.9308 287.0
85.9977 330.0
86.0645 291.0
86.1314 254.0
86.1982 273.0
86.2651 261.0
86.3319 273.0
86.3988 266.0
86.4656 310.0
86.5324 324.0
86.5993 239.0
86.6661 283.0
86.733 279.0
86.7998 294.0
86.8667 293.0
86.9335 318.0
87.0004 278.0
87.0672 274.0
87.1341 303.0
87.2009 288.0
87.2677 261.0
87.3346 259.0
87.4014 308.0
87.4683 272.0
87.5351 293.0
87.602 309.0
87.6688 298.0
87.7357 302.0
87.8025 276.0
87.8693 325.0
87.9362 256.0
88.003 285.0
88.0699 264.0
88.1367 290.0
88.2036 260.0
88.2704 292.0
88.3373 309.0
88.4041 261.0
88.471 220.0
88.5378 275.0
88.6046 270.0
88.6715 229.0
88.7383 303.0
88.8052 273.0
88.872 280.0
88.9389 280.0
89.0057 255.0
89.0726 256.0
89.1394 252.0
89.2063 291.0
89.2731 277.0
89.3399 260.0
89.4068 278.0
89.4736 262.0
89.5405 308.0
89.6073 311.0
89.6742 267.0
89.741 224.0
89.8079 300.0
89.8747 244.0
89.9415 274.0