File: code/XRD_Analysis/External Sources/Alex_SAPO/20220730_SAPO-34_30_1_220725_calc650C.xy
4.98146 1450.0
5.0483 1441.0
5.11515 1437.0
5.18199 1377.0
5.24884 1386.0
5.31568 1336.0
5.38253 1329.0
5.44937 1294.0
5.51622 1260.0
5.58306 1293.0
5.64991 1246.0
5.71675 1267.0
5.7836 1300.0
5.85044 1121.0
5.91729 1173.0
5.98413 1194.0
6.05098 1068.0
6.11782 1136.0
6.18467 1148.0
6.25151 1151.0
6.31836 1136.0
6.3852 1080.0
6.45205 1025.0
6.51889 1082.0
6.58574 1083.0
6.65258 1078.0
6.71943 1065.0
6.78627 1043.0
6.85312 1034.0
6.91996 993.0
6.98681 993.0
7.05365 1023.0
7.1205 1026.0
7.18734 1067.0
7.25419 1129.0
7.32103 1398.0
7.38788 2361.0
7.45472 2080.0
7.52157 931.0
7.58841 934.0
7.65526 955.0
7.7221 937.0
7.78895 929.0
7.85579 908.0
7.92264 870.0
7.98948 920.0
8.05633 876.0
8.12317 877.0
8.19002 888.0
8.25686 832.0
8.32371 850.0
8.39055 845.0
8.4574 856.0
8.52424 844.0
8.59109 835.0
8.65793 872.0
8.72478 857.0
8.79162 817.0
8.85847 802.0
8.92532 802.0
8.99216 833.0
9.05901 794.0
9.12585 866.0
9.1927 885.0
9.25954 894.0
9.32639 1190.0
9.39323 2058.0
9.46008 4942.0
9.52692 9694.0
9.59377 5718.0
9.66061 1601.0
9.72746 1104.0
9.7943 957.0
9.86115 944.0
9.92799 954.0
9.99484 902.0
10.0617 887.0
10.1285 808.0
10.1954 854.0
10.2622 825.0
10.3291 812.0
10.3959 855.0
10.4628 782.0
10.5296 813.0
10.5964 859.0
10.6633 792.0
10.7301 837.0
10.797 807.0
10.8638 792.0
10.9307 812.0
10.9975 778.0
11.0644 787.0
11.1312 798.0
11.198 716.0
11.2649 722.0
11.3317 753.0
11.3986 704.0
11.4654 740.0
11.5323 750.0
11.5991 747.0
11.666 728.0
11.7328 748.0
11.7997 724.0
11.8665 684.0
11.9333 760.0
12.0002 742.0
12.067 731.0
12.1339 696.0
12.2007 680.0
12.2676 696.0
12.3344 726.0
12.4013 721.0
12.4681 659.0
12.5349 738.0
12.6018 698.0
12.6686 763.0
12.7355 806.0
12.8023 1109.0
12.8692 1934.0
12.936 2626.0
13.0029 1991.0
13.0697 886.0
13.1366 741.0
13.2034 675.0
13.2702 758.0
13.3371 840.0
13.4039 935.0
13.4708 927.0
13.5376 768.0
13.6045 712.0
13.6713 647.0
13.7382 617.0
13.805 595.0
13.8719 644.0
13.9387 684.0
14.0055 758.0
14.0724 665.0
14.1392 582.0
14.2061 609.0
14.2729 591.0
14.3398 600.0
14.4066 626.0
14.4735 554.0
14.5403 605.0
14.6071 599.0
14.674 584.0
14.7408 607.0
14.8077 730.0
14.8745 831.0
14.9414 660.0
15.0082 579.0
15.0751 534.0
15.1419 621.0
15.2088 595.0
15.2756 559.0
15.3424 597.0
15.4093 570.0
15.4761 630.0
15.543 571.0
15.6098 637.0
15.6767 633.0
15.7435 673.0
15.8104 645.0
15.8772 650.0
15.944 699.0
16.0109 1054.0
16.0777 1763.0
16.1446 2266.0
16.2114 1260.0
16.2783 810.0
16.3451 747.0
16.412 747.0
16.4788 764.0
16.5457 727.0
16.6125 813.0
16.6793 847.0
16.7462 950.0
16.813 966.0
16.8799 1018.0
16.9467 1007.0
17.0136 1056.0
17.0804 1026.0
17.1473 1007.0
17.2141 930.0
17.2809 960.0
17.3478 864.0
17.4146 871.0
17.4815 833.0
17.5483 784.0
17.6152 776.0
17.682 866.0
17.7489 904.0
17.8157 943.0
17.8826 851.0
17.9494 801.0
18.0162 760.0
18.0831 731.0
18.1499 721.0
18.2168 721.0
18.2836 735.0
18.3505 710.0
18.4173 743.0
18.4842 686.0
18.551 658.0
18.6179 727.0
18.6847 696.0
18.7515 680.0
18.8184 697.0
18.8852 727.0
18.9521 705.0
19.0189 898.0
19.0858 1216.0
19.1526 1234.0
19.2195 993.0
19.2863 813.0
19.3531 809.0
19.42 740.0
19.4868 763.0
19.5537 833.0
19.6205 1157.0
19.6874 1744.0
19.7542 1699.0
19.8211 1068.0
19.8879 960.0
19.9548 994.0
20.0216 1088.0
20.0884 1161.0
20.1553 1339.0
20.2221 1615.0
20.289 1779.0
20.3558 1846.0
20.4227 1652.0
20.4895 1614.0
20.5564 1571.0
20.6232 2184.0
20.69 3499.0
20.7569 3659.0
20.8237 2521.0
20.8906 1603.0
20.9574 1547.0
21.0243 1647.0
21.0911 2752.0
21.158 3619.0
21.2248 2917.0
21.2917 2471.0
21.3585 2644.0
21.4253 2957.0
21.4922 2523.0
21.559 1731.0
21.6259 1377.0
21.6927 1179.0
21.7596 1153.0
21.8264 1029.0
21.8933 1031.0
21.9601 1064.0
22.0269 1023.0
22.0938 1088.0
22.1606 1151.0
22.2275 1190.0
22.2943 1669.0
22.3612 3187.0
22.428 4542.0
22.4949 2637.0
22.5617 1427.0
22.6286 1203.0
22.6954 1263.0
22.7622 1216.0
22.8291 1273.0
22.8959 1226.0
22.9628 1259.0
23.0296 1234.0
23.0965 1215.0
23.1633 1521.0
23.2302 1708.0
23.297 1504.0
23.3639 1193.0
23.4307 1101.0
23.4975 1122.0
23.5644 1096.0
23.6312 1078.0
23.6981 1167.0
23.7649 1197.0
23.8318 1185.0
23.8986 1163.0
23.9655 1267.0
24.0323 1287.0
24.0991 1310.0
24.166 1252.0
24.2328 1228.0
24.2997 1294.0
24.3665 1250.0
24.4334 1228.0
24.5002 1254.0
24.5671 1199.0
24.6339 1172.0
24.7008 1149.0
24.7676 1226.0
24.8344 1399.0
24.9013 1349.0
24.9681 1376.0
25.035 1430.0
25.1018 1303.0
25.1687 1281.0
25.2355 1224.0
25.3024 1148.0
25.3692 1135.0
25.436 1213.0
25.5029 1142.0
25.5697 1238.0
25.6366 1136.0
25.7034 1236.0
25.7703 1382.0
25.8371 1690.0
25.904 2181.0
25.9708 2339.0
26.0377 2209.0
26.1045 2331.0
26.1713 1919.0
26.2382 1409.0
26.305 1354.0
26.3719 1270.0
26.4387 1291.0
26.5056 1197.0
26.5724 1205.0
26.6393 1170.0
26.7061 1215.0
26.773 1198.0
26.8398 1143.0
26.9066 1176.0
26.9735 1072.0
27.0403 1109.0
27.1072 1126.0
27.174 1091.0
27.2409 1101.0
27.3077 1103.0
27.3746 1115.0
27.4414 1038.0
27.5082 1097.0
27.5751 1063.0
27.6419 1099.0
27.7088 1103.0
27.7756 1244.0
27.8425 1310.0
27.9093 1265.0
27.9762 1223.0
28.043 1143.0
28.1099 1308.0
28.1767 1365.0
28.2435 1315.0
28.3104 1370.0
28.3772 1240.0
28.4441 1146.0
28.5109 1200.0
28.5778 1129.0
28.6446 1211.0
28.7115 1058.0
28.7783 1135.0
28.8451 1194.0
28.912 1159.0
28.9788 1382.0
29.0457 1874.0
29.1125 1882.0
29.1794 1505.0
29.2462 1198.0
29.3131 1141.0
29.3799 1162.0
29.4468 1206.0
29.5136 1192.0
29.5804 1293.0
29.6473 1283.0
29.7141 1409.0
29.781 1551.0
29.8478 1384.0
29.9147 1513.0
29.9815 1958.0
30.0484 1899.0
30.1152 1815.0
30.182 1556.0
30.2489 1601.0
30.3157 1616.0
30.3826 1613.0
30.4494 1760.0
30.5163 1784.0
30.5831 1959.0
30.65 1972.0
30.7168 1976.0
30.7837 2182.0
30.8505 2286.0
30.9173 2308.0
30.9842 2211.0
31.051 2332.0
31.1179 2548.0
31.1847 2733.0
31.2516 2745.0
31.3184 2475.0
31.3853 2277.0
31.4521 1851.0
31.519 1654.0
31.5858 1490.0
31.6526 1472.0
31.7195 1380.0
31.7863 1474.0
31.8532 1434.0
31.92 1424.0
31.9869 1367.0
32.0537 1275.0
32.1206 1244.0
32.1874 1208.0
32.2542 1208.0
32.3211 1203.0
32.3879 1214.0
32.4548 1206.0
32.5216 1226.0
32.5885 1215.0
32.6553 1210.0
32.7222 1180.0
32.789 1102.0
32.8559 1058.0
32.9227 1056.0
32.9895 1041.0
33.0564 985.0
33.1232 1028.0
33.1901 985.0
33.2569 975.0
33.3238 924.0
33.3906 1024.0
33.4575 919.0
33.5243 1026.0
33.5911 1009.0
33.658 1147.0
33.7248 1195.0
33.7917 1052.0
33.8585 1005.0
33.9254 932.0
33.9922 894.0
34.0591 917.0
34.1259 914.0
34.1928 901.0
34.2596 924.0
34.3264 932.0
34.3933 1031.0
34.4601 1272.0
34.527 1365.0
34.5938 1209.0
34.6607 1000.0
34.7275 870.0
34.7944 938.0
34.8612 847.0
34.928 933.0
34.9949 867.0
35.0617 848.0
35.1286 865.0
35.1954 906.0
35.2623 942.0
35.3291 1075.0
35.396 1040.0
35.4628 1048.0
35.5297 1090.0
35.5965 962.0
35.6633 977.0
35.7302 938.0
35.797 831.0
35.8639 813.0
35.9307 781.0
35.9976 799.0
36.0644 836.0
36.1313 852.0
36.1981 759.0
36.265 790.0
36.3318 779.0
36.3986 708.0
36.4655 711.0
36.5323 706.0
36.5992 723.0
36.666 693.0
36.7329 705.0
36.7997 653.0
36.8666 685.0
36.9334 764.0
37.0002 835.0
37.0671 760.0
37.1339 742.0
37.2008 643.0
37.2676 674.0
37.3345 674.0
37.4013 666.0
37.4682 611.0
37.535 623.0
37.6019 682.0
37.6687 661.0
37.7355 717.0
37.8024 860.0
37.8692 1042.0
37.9361 963.0
38.0029 751.0
38.0698 667.0
38.1366 623.0
38.2035 622.0
38.2703 606.0
38.3371 645.0
38.404 643.0
38.4708 649.0
38.5377 642.0
38.6045 664.0
38.6714 583.0
38.7382 639.0
38.8051 595.0
38.8719 632.0
38.9388 680.0
39.0056 613.0
39.0724 625.0
39.1393 649.0
39.2061 609.0
39.273 656.0
39.3398 691.0
39.4067 677.0
39.4735 618.0
39.5404 610.0
39.6072 652.0
39.6741 626.0
39.7409 604.0
39.8077 625.0
39.8746 611.0
39.9414 636.0
40.0083 631.0
40.0751 686.0
40.142 680.0
40.2088 645.0
40.2757 590.0
40.3425 619.0
40.4093 637.0
40.4762 623.0
40.543 609.0
40.6099 631.0
40.6767 571.0
40.7436 635.0
40.8104 625.0
40.8773 644.0
40.9441 582.0
41.011 614.0
41.0778 592.0
41.1446 623.0
41.2115 578.0
41.2783 606.0
41.3452 654.0
41.412 614.0
41.4789 628.0
41.5457 672.0
41.6126 670.0
41.6794 646.0
41.7462 650.0
41.8131 626.0
41.8799 649.0
41.9468 619.0
42.0136 651.0
42.0805 625.0
42.1473 652.0
42.2142 652.0
42.281 634.0
42.3479 699.0
42.4147 645.0
42.4815 651.0
42.5484 602.0
42.6152 636.0
42.6821 619.0
42.7489 604.0
42.8158 614.0
42.8826 619.0
42.9495 610.0
43.0163 678.0
43.0831 674.0
43.15 747.0
43.2168 700.0
43.2837 657.0
43.3505 685.0
43.4174 684.0
43.4842 652.0
43.5511 680.0
43.6179 692.0
43.6848 709.0
43.7516 658.0
43.8184 723.0
43.8853 651.0
43.9521 637.0
44.019 595.0
44.0858 537.0
44.1527 581.0
44.2195 595.0
44.2864 616.0
44.3532 590.0
44.4201 599.0
44.4869 599.0
44.5537 559.0
44.6206 586.0
44.6874 638.0
44.7543 574.0
44.8211 584.0
44.888 559.0
44.9548 555.0
45.0217 616.0
45.0885 631.0
45.1553 599.0
45.2222 575.0
45.289 569.0
45.3559 571.0
45.4227 571.0
45.4896 560.0
45.5564 579.0
45.6233 646.0
45.6901 554.0
45.757 612.0
45.8238 572.0
45.8906 578.0
45.9575 600.0
46.0243 552.0
46.0912 576.0
46.158 555.0
46.2249 556.0
46.2917 550.0
46.3586 511.0
46.4254 567.0
46.4922 584.0
46.5591 575.0
46.6259 589.0
46.6928 553.0
46.7596 572.0
46.8265 549.0
46.8933 559.0
46.9602 607.0
47.027 520.0
47.0939 582.0
47.1607 582.0
47.2275 586.0
47.2944 573.0
47.3612 639.0
47.4281 586.0
47.4949 601.0
47.5618 610.0
47.6286 661.0
47.6955 712.0
47.7623 719.0
47.8291 688.0
47.896 678.0
47.9628 622.0
48.0297 604.0
48.0965 615.0
48.1634 568.0
48.2302 571.0
48.2971 540.0
48.3639 586.0
48.4308 545.0
48.4976 586.0
48.5644 631.0
48.6313 544.0
48.6981 568.0
48.765 557.0
48.8318 611.0
48.8987 614.0
48.9655 606.0
49.0324 680.0
49.0992 682.0
49.1661 701.0
49.2329 722.0
49.2997 726.0
49.3666 757.0
49.4334 726.0
49.5003 729.0
49.5671 634.0
49.634 689.0
49.7008 598.0
49.7677 579.0
49.8345 605.0
49.9013 599.0
49.9682 604.0
50.035 614.0
50.1019 612.0
50.1687 579.0
50.2356 623.0
50.3024 581.0
50.3693 681.0
50.4361 591.0
50.503 607.0
50.5698 611.0
50.6366 616.0
50.7035 598.0
50.7703 585.0
50.8372 609.0
50.904 648.0
50.9709 634.0
51.0377 678.0
51.1046 657.0
51.1714 681.0
51.2382 663.0
51.3051 621.0
51.3719 623.0
51.4388 681.0
51.5056 675.0
51.5725 642.0
51.6393 622.0
51.7062 597.0
51.773 589.0
51.8399 564.0
51.9067 589.0
51.9735 646.0
52.0404 552.0
52.1072 569.0
52.1741 633.0
52.2409 583.0
52.3078 604.0
52.3746 574.0
52.4415 592.0
52.5083 576.0
52.5751 611.0
52.642 552.0
52.7088 637.0
52.7757 545.0
52.8425 594.0
52.9094 575.0
52.9762 599.0
53.0431 535.0
53.1099 559.0
53.1768 542.0
53.2436 634.0
53.3104 561.0
53.3773 604.0
53.4441 627.0
53.511 591.0
53.5778 587.0
53.6447 650.0
53.7115 631.0
53.7784 627.0
53.8452 616.0
53.9121 613.0
53.9789 596.0
54.0457 555.0
54.1126 561.0
54.1794 603.0
54.2463 561.0
54.3131 565.0
54.38 528.0
54.4468 550.0
54.5137 551.0
54.5805 554.0
54.6473 539.0
54.7142 537.0
54.781 580.0
54.8479 571.0
54.9147 569.0
54.9816 598.0
55.0484 581.0
55.1153 566.0
55.1821 594.0
55.249 602.0
55.3158 581.0
55.3826 615.0
55.4495 588.0
55.5163 616.0
55.5832 618.0
55.65 606.0
55.7169 672.0
55.7837 609.0
55.8506 627.0
55.9174 605.0
55.9842 583.0
56.0511 616.0
56.1179 616.0
56.1848 616.0
56.2516 590.0
56.3185 596.0
56.3853 622.0
56.4522 601.0
56.519 633.0
56.5859 566.0
56.6527 609.0
56.7195 637.0
56.7864 619.0
56.8532 583.0
56.9201 604.0
56.9869 617.0
57.0538 549.0
57.1206 541.0
57.1875 531.0
57.2543 536.0
57.3212 548.0
57.388 534.0
57.4548 580.0
57.5217 572.0
57.5885 582.0
57.6554 559.0
57.7222 486.0
57.7891 535.0
57.8559 501.0
57.9228 522.0
57.9896 503.0
58.0564 526.0
58.1233 487.0
58.1901 545.0
58.257 537.0
58.3238 471.0
58.3907 565.0
58.4575 528.0
58.5244 590.0
58.5912 590.0
58.6581 653.0
58.7249 685.0
58.7917 652.0
58.8586 605.0
58.9254 583.0
58.9923 576.0
59.0591 527.0
59.126 547.0
59.1928 538.0
59.2597 534.0
59.3265 514.0
59.3933 465.0
59.4602 500.0
59.527 501.0
59.5939 544.0
59.6607 531.0
59.7276 541.0
59.7944 560.0
59.8613 604.0
59.9281 538.0
59.995 537.0
60.0618 567.0
60.1286 570.0
60.1955 548.0
60.2623 567.0
60.3292 595.0
60.396 550.0
60.4629 570.0
60.5297 506.0
60.5966 532.0
60.6634 538.0
60.7302 588.0
60.7971 551.0
60.8639 564.0
60.9308 535.0
60.9976 519.0
61.0645 491.0
61.1313 502.0
61.1982 512.0
61.265 491.0
61.3319 526.0
61.3987 554.0
61.4655 556.0
61.5324 531.0
61.5992 575.0
61.6661 518.0
61.7329 522.0
61.7998 513.0
61.8666 525.0
61.9335 549.0
62.0003 482.0
62.0672 532.0
62.134 551.0
62.2008 539.0
62.2677 513.0
62.3345 510.0
62.4014 466.0
62.4682 517.0
62.5351 501.0
62.6019 513.0
62.6688 513.0
62.7356 563.0
62.8024 532.0
62.8693 533.0
62.9361 535.0
63.003 511.0
63.0698 532.0
63.1367 485.0
63.2035 509.0
63.2704 539.0
63.3372 525.0
63.4041 485.0
63.4709 542.0
63.5377 498.0
63.6046 512.0
63.6714 541.0
63.7383 453.0
63.8051 489.0
63.872 516.0
63.9388 527.0
64.0057 510.0
64.0725 538.0
64.1393 456.0
64.2062 505.0
64.273 496.0
64.3399 494.0
64.4067 473.0
64.4736 540.0
64.5404 489.0
64.6073 519.0
64.6741 453.0
64.741 526.0
64.8078 525.0
64.8746 503.0
64.9415 518.0
65.0083 516.0
65.0752 510.0
65.142 494.0
65.2089 522.0
65.2757 496.0
65.3426 510.0
65.4094 551.0
65.4762 543.0
65.5431 543.0
65.6099 524.0
65.6768 520.0
65.7436 500.0
65.8105 536.0
65.8773 551.0
65.9442 495.0
66.011 507.0
66.0779 511.0
66.1447 480.0
66.2115 525.0
66.2784 466.0
66.3452 496.0
66.4121 472.0
66.4789 536.0
66.5458 508.0
66.6126 544.0
66.6795 512.0
66.7463 511.0
66.8132 483.0
66.88 525.0
66.9468 568.0
67.0137 521.0
67.0805 523.0
67.1474 548.0
67.2142 540.0
67.2811 508.0
67.3479 535.0
67.4148 516.0
67.4816 496.0
67.5484 513.0
67.6153 487.0
67.6821 517.0
67.749 466.0
67.8158 509.0
67.8827 501.0
67.9495 504.0
68.0164 527.0
68.0832 561.0
68.1501 514.0
68.2169 555.0
68.2837 557.0
68.3506 522.0
68.4174 496.0
68.4843 475.0
68.5511 482.0
68.618 479.0
68.6848 464.0
68.7517 469.0
68.8185 482.0
68.8853 464.0
68.9522 455.0
69.019 472.0
69.0859 493.0
69.1527 453.0
69.2196 481.0
69.2864 465.0
69.3533 480.0
69.4201 453.0
69.487 450.0
69.5538 461.0
69.6206 471.0
69.6875 444.0
69.7543 433.0
69.8212 455.0
69.888 475.0
69.9549 497.0
70.0217 462.0
70.0886 491.0
70.1554 482.0
70.2222 492.0
70.2891 503.0
70.3559 479.0
70.4228 474.0
70.4896 502.0
70.5565 458.0
70.6233 504.0
70.6902 491.0
70.757 459.0
70.8239 447.0
70.8907 453.0
70.9575 486.0
71.0244 456.0
71.0912 418.0
71.1581 480.0
71.2249 509.0
71.2918 491.0
71.3586 489.0
71.4255 463.0
71.4923 474.0
71.5592 442.0
71.626 469.0
71.6928 449.0
71.7597 455.0
71.8265 459.0
71.8934 431.0
71.9602 455.0
72.0271 487.0
72.0939 431.0
72.1608 428.0
72.2276 460.0
72.2944 447.0
72.3613 439.0
72.4281 478.0
72.495 431.0
72.5618 486.0
72.6287 478.0
72.6955 478.0
72.7624 392.0
72.8292 444.0
72.8961 438.0
72.9629 432.0
73.0297 451.0
73.0966 469.0
73.1634 451.0
73.2303 457.0
73.2971 423.0
73.364 475.0
73.4308 404.0
73.4977 444.0
73.5645 418.0
73.6313 385.0
73.6982 442.0
73.765 398.0
73.8319 438.0
73.8987 489.0
73.9656 436.0
74.0324 440.0
74.0993 368.0
74.1661 441.0
74.233 435.0
74.2998 406.0
74.3666 393.0
74.4335 433.0
74.5003 434.0
74.5672 467.0
74.634 445.0
74.7009 414.0
74.7677 412.0
74.8346 453.0
74.9014 396.0
74.9683 411.0
75.0351 425.0
75.1019 466.0
75.1688 398.0
75.2356 432.0
75.3025 458.0
75.3693 457.0
75.4362 445.0
75.503 457.0
75.5699 420.0
75.6367 418.0
75.7035 459.0
75.7704 422.0
75.8372 439.0
75.9041 428.0
75.9709 419.0
76.0378 443.0
76.1046 411.0
76.1715 435.0
76.2383 467.0
76.3052 381.0
76.372 427.0
76.4388 425.0
76.5057 402.0
76.5725 407.0
76.6394 398.0
76.7062 427.0
76.7731 444.0
76.8399 425.0
76.9068 426.0
76.9736 440.0
77.0404 420.0
77.1073 399.0
77.1741 392.0
77.241 375.0
77.3078 416.0
77.3747 426.0
77.4415 442.0
77.5084 434.0
77.5752 380.0
77.6421 428.0
77.7089 387.0
77.7757 371.0
77.8426 422.0
77.9094 376.0
77.9763 366.0
78.0431 368.0
78.11 383.0
78.1768 356.0
78.2437 396.0
78.3105 391.0
78.3773 398.0
78.4442 364.0
78.511 389.0
78.5779 391.0
78.6447 367.0
78.7116 402.0
78.7784 338.0
78.8453 387.0
78.9121 406.0
78.979 353.0
79.0458 381.0
79.1126 407.0
79.1795 366.0
79.2463 378.0
79.3132 407.0
79.38 417.0
79.4469 381.0
79.5137 370.0
79.5806 369.0
79.6474 395.0
79.7143 365.0
79.7811 377.0
79.8479 422.0
79.9148 368.0
79.9816 372.0
80.0485 371.0
80.1153 376.0
80.1822 376.0
80.249 383.0
80.3159 352.0
80.3827 367.0
80.4495 354.0
80.5164 351.0
80.5832 376.0
80.6501 334.0
80.7169 340.0
80.7838 325.0
80.8506 337.0
80.9175 371.0
80.9843 345.0
81.0512 321.0
81.118 355.0
81.1848 330.0
81.2517 349.0
81.3185 361.0
81.3854 371.0
81.4522 334.0
81.5191 368.0
81.5859 334.0
81.6528 345.0
81.7196 357.0
81.7864 333.0
81.8533 345.0
81.9201 361.0
81.987 342.0
82.0538 349.0
82.1207 367.0
82.1875 342.0
82.2544 309.0
82.3212 330.0
82.3881 336.0
82.4549 324.0
82.5217 332.0
82.5886 280.0
82.6554 306.0
82.7223 322.0
82.7891 316.0
82.856 311.0
82.9228 318.0
82.9897 340.0
83.0565 307.0
83.1233 318.0
83.1902 322.0
83.257 321.0
83.3239 321.0
83.3907 301.0
83.4576 318.0
83.5244 292.0
83.5913 325.0
83.6581 288.0
83.725 308.0
83.7918 272.0
83.8586 292.0
83.9255 308.0
83.9923 319.0
84.0592 315.0
84.126 311.0
84.1929 268.0
84.2597 306.0
84.3266 244.0
84.3934 290.0
84.4603 307.0
84.5271 288.0
84.5939 266.0
84.6608 276.0
84.7276 299.0
84.7945 268.0
84.8613 333.0
84.9282 274.0
84.995 269.0
85.0619 284.0
85.1287 255.0
85.1955 251.0
85.2624 307.0
85.3292 277.0
85.3961 266.0
85.4629 304.0
85.5298 277.0
85.5966 288.0
85.6635 292.0
85.7303 266.0
85.7972 274.0
85.864 267.0
85.9308 293.0
85.9977 252.0
86.0645 292.0
86.1314 254.0
86.1982 268.0
86.2651 259.0
86.3319 261.0
86.3988 289.0
86.4656 254.0
86.5324 268.0
86.5993 255.0
86.6661 279.0
86.733 276.0
86.7998 257.0
86.8667 271.0
86.9335 267.0
87.0004 261.0
87.0672 263.0
87.1341 283.0
87.2009 260.0
87.2677 250.0
87.3346 286.0
87.4014 237.0
87.4683 262.0
87.5351 277.0
87.602 244.0
87.6688 240.0
87.7357 233.0
87.8025 278.0
87.8693 241.0
87.9362 262.0
88.003 269.0
88.0699 245.0
88.1367 251.0
88.2036 253.0
88.2704 228.0
88.3373 244.0
88.4041 284.0
88.471 253.0
88.5378 237.0
88.6046 254.0
88.6715 236.0
88.7383 255.0
88.8052 245.0
88.872 241.0
88.9389 244.0
89.0057 219.0
89.0726 282.0
89.1394 267.0
89.2063 271.0
89.2731 269.0
89.3399 264.0
89.4068 239.0
89.4736 262.0
89.5405 258.0
89.6073 237.0
89.6742 250.0
89.741 237.0
89.8079 272.0
89.8747 259.0
89.9415 271.0