File: code/XRD_Analysis/External Sources/Alex_SAPO/20221013_SAPO-18_221010_1_calc550C.xy
4.98146 1563.0
5.0483 1523.0
5.11515 1571.0
5.18199 1407.0
5.24884 1404.0
5.31568 1361.0
5.38253 1359.0
5.44937 1434.0
5.51622 1383.0
5.58306 1346.0
5.64991 1298.0
5.71675 1332.0
5.7836 1229.0
5.85044 1239.0
5.91729 1229.0
5.98413 1242.0
6.05098 1137.0
6.11782 1198.0
6.18467 1192.0
6.25151 1178.0
6.31836 1187.0
6.3852 1039.0
6.45205 1150.0
6.51889 1096.0
6.58574 1065.0
6.65258 1076.0
6.71943 1176.0
6.78627 1024.0
6.85312 1026.0
6.91996 1114.0
6.98681 1027.0
7.05365 991.0
7.1205 996.0
7.18734 998.0
7.25419 1038.0
7.32103 1001.0
7.38788 1015.0
7.45472 959.0
7.52157 1004.0
7.58841 956.0
7.65526 960.0
7.7221 976.0
7.78895 950.0
7.85579 931.0
7.92264 944.0
7.98948 960.0
8.05633 962.0
8.12317 922.0
8.19002 908.0
8.25686 954.0
8.32371 956.0
8.39055 900.0
8.4574 904.0
8.52424 898.0
8.59109 903.0
8.65793 944.0
8.72478 884.0
8.79162 941.0
8.85847 939.0
8.92532 955.0
8.99216 963.0
9.05901 1064.0
9.12585 1054.0
9.1927 1181.0
9.25954 1366.0
9.32639 1898.0
9.39323 2978.0
9.46008 5255.0
9.52692 7675.0
9.59377 7056.0
9.66061 4911.0
9.72746 3270.0
9.7943 1943.0
9.86115 1385.0
9.92799 1235.0
9.99484 1143.0
10.0617 1029.0
10.1285 986.0
10.1954 984.0
10.2622 975.0
10.3291 1048.0
10.3959 1101.0
10.4628 1159.0
10.5296 1407.0
10.5964 1726.0
10.6633 1885.0
10.7301 1712.0
10.797 1501.0
10.8638 1074.0
10.9307 1048.0
10.9975 860.0
11.0644 859.0
11.1312 860.0
11.198 792.0
11.2649 809.0
11.3317 777.0
11.3986 778.0
11.4654 830.0
11.5323 707.0
11.5991 748.0
11.666 783.0
11.7328 691.0
11.7997 769.0
11.8665 707.0
11.9333 690.0
12.0002 727.0
12.067 756.0
12.1339 706.0
12.2007 729.0
12.2676 708.0
12.3344 769.0
12.4013 670.0
12.4681 743.0
12.5349 769.0
12.6018 727.0
12.6686 797.0
12.7355 930.0
12.8023 1225.0
12.8692 1711.0
12.936 2039.0
13.0029 1681.0
13.0697 1210.0
13.1366 931.0
13.2034 837.0
13.2702 810.0
13.3371 873.0
13.4039 846.0
13.4708 995.0
13.5376 1122.0
13.6045 1100.0
13.6713 919.0
13.7382 864.0
13.805 746.0
13.8719 713.0
13.9387 755.0
14.0055 790.0
14.0724 783.0
14.1392 712.0
14.2061 673.0
14.2729 666.0
14.3398 662.0
14.4066 679.0
14.4735 666.0
14.5403 663.0
14.6071 637.0
14.674 690.0
14.7408 719.0
14.8077 706.0
14.8745 743.0
14.9414 710.0
15.0082 636.0
15.0751 675.0
15.1419 656.0
15.2088 679.0
15.2756 689.0
15.3424 651.0
15.4093 690.0
15.4761 703.0
15.543 680.0
15.6098 723.0
15.6767 735.0
15.7435 704.0
15.8104 777.0
15.8772 792.0
15.944 994.0
16.0109 1208.0
16.0777 1481.0
16.1446 1531.0
16.2114 1502.0
16.2783 1378.0
16.3451 1104.0
16.412 975.0
16.4788 871.0
16.5457 908.0
16.6125 922.0
16.6793 957.0
16.7462 1047.0
16.813 1161.0
16.8799 1568.0
16.9467 2172.0
17.0136 2679.0
17.0804 2573.0
17.1473 2068.0
17.2141 1879.0
17.2809 1874.0
17.3478 1855.0
17.4146 1668.0
17.4815 1411.0
17.5483 1297.0
17.6152 1076.0
17.682 1038.0
17.7489 978.0
17.8157 896.0
17.8826 861.0
17.9494 804.0
18.0162 813.0
18.0831 857.0
18.1499 829.0
18.2168 815.0
18.2836 807.0
18.3505 781.0
18.4173 747.0
18.4842 813.0
18.551 736.0
18.6179 805.0
18.6847 795.0
18.7515 809.0
18.8184 776.0
18.8852 850.0
18.9521 910.0
19.0189 1075.0
19.0858 1266.0
19.1526 1310.0
19.2195 1164.0
19.2863 1020.0
19.3531 978.0
19.42 925.0
19.4868 918.0
19.5537 974.0
19.6205 1080.0
19.6874 1181.0
19.7542 1262.0
19.8211 1126.0
19.8879 1153.0
19.9548 1115.0
20.0216 1135.0
20.0884 1330.0
20.1553 1428.0
20.2221 1453.0
20.289 1398.0
20.3558 1292.0
20.4227 1337.0
20.4895 1350.0
20.5564 1624.0
20.6232 2073.0
20.69 2376.0
20.7569 2226.0
20.8237 1787.0
20.8906 1398.0
20.9574 1213.0
21.0243 1268.0
21.0911 1293.0
21.158 1375.0
21.2248 1473.0
21.2917 1715.0
21.3585 1898.0
21.4253 2099.0
21.4922 2159.0
21.559 2140.0
21.6259 1777.0
21.6927 1433.0
21.7596 1201.0
21.8264 1123.0
21.8933 1083.0
21.9601 1066.0
22.0269 1041.0
22.0938 1106.0
22.1606 1098.0
22.2275 1001.0
22.2943 1047.0
22.3612 1112.0
22.428 1131.0
22.4949 1172.0
22.5617 1281.0
22.6286 1317.0
22.6954 1211.0
22.7622 1187.0
22.8291 1185.0
22.8959 1114.0
22.9628 1150.0
23.0296 1212.0
23.0965 1288.0
23.1633 1310.0
23.2302 1440.0
23.297 1442.0
23.3639 1334.0
23.4307 1267.0
23.4975 1393.0
23.5644 1386.0
23.6312 1422.0
23.6981 1562.0
23.7649 1587.0
23.8318 2013.0
23.8986 2322.0
23.9655 2644.0
24.0323 2849.0
24.0991 2880.0
24.166 2734.0
24.2328 2247.0
24.2997 1958.0
24.3665 1645.0
24.4334 1460.0
24.5002 1417.0
24.5671 1356.0
24.6339 1351.0
24.7008 1313.0
24.7676 1294.0
24.8344 1306.0
24.9013 1221.0
24.9681 1257.0
25.035 1243.0
25.1018 1271.0
25.1687 1315.0
25.2355 1391.0
25.3024 1366.0
25.3692 1404.0
25.436 1505.0
25.5029 1491.0
25.5697 1415.0
25.6366 1445.0
25.7034 1469.0
25.7703 1523.0
25.8371 1597.0
25.904 1781.0
25.9708 2024.0
26.0377 2161.0
26.1045 2090.0
26.1713 1906.0
26.2382 1925.0
26.305 1867.0
26.3719 2072.0
26.4387 2116.0
26.5056 2120.0
26.5724 1939.0
26.6393 1724.0
26.7061 1494.0
26.773 1427.0
26.8398 1390.0
26.9066 1368.0
26.9735 1313.0
27.0403 1287.0
27.1072 1350.0
27.174 1387.0
27.2409 1293.0
27.3077 1402.0
27.3746 1388.0
27.4414 1359.0
27.5082 1380.0
27.5751 1351.0
27.6419 1446.0
27.7088 1434.0
27.7756 1543.0
27.8425 1653.0
27.9093 1693.0
27.9762 1839.0
28.043 1848.0
28.1099 1969.0
28.1767 1869.0
28.2435 1912.0
28.3104 1753.0
28.3772 1619.0
28.4441 1488.0
28.5109 1408.0
28.5778 1396.0
28.6446 1434.0
28.7115 1316.0
28.7783 1286.0
28.8451 1326.0
28.912 1288.0
28.9788 1270.0
29.0457 1284.0
29.1125 1250.0
29.1794 1293.0
29.2462 1350.0
29.3131 1330.0
29.3799 1324.0
29.4468 1399.0
29.5136 1433.0
29.5804 1480.0
29.6473 1546.0
29.7141 1600.0
29.781 1568.0
29.8478 1628.0
29.9147 1569.0
29.9815 1699.0
30.0484 1815.0
30.1152 1896.0
30.182 1812.0
30.2489 1687.0
30.3157 1755.0
30.3826 1711.0
30.4494 1814.0
30.5163 1790.0
30.5831 1786.0
30.65 1776.0
30.7168 1911.0
30.7837 2007.0
30.8505 1994.0
30.9173 2070.0
30.9842 2246.0
31.051 2380.0
31.1179 2731.0
31.1847 2915.0
31.2516 2858.0
31.3184 2664.0
31.3853 2452.0
31.4521 2171.0
31.519 1916.0
31.5858 1688.0
31.6526 1575.0
31.7195 1556.0
31.7863 1602.0
31.8532 1619.0
31.92 1555.0
31.9869 1421.0
32.0537 1393.0
32.1206 1386.0
32.1874 1439.0
32.2542 1534.0
32.3211 1560.0
32.3879 1651.0
32.4548 1695.0
32.5216 1630.0
32.5885 1594.0
32.6553 1529.0
32.7222 1533.0
32.789 1458.0
32.8559 1580.0
32.9227 1494.0
32.9895 1567.0
33.0564 1544.0
33.1232 1485.0
33.1901 1385.0
33.2569 1279.0
33.3238 1198.0
33.3906 1122.0
33.4575 1094.0
33.5243 1013.0
33.5911 988.0
33.658 971.0
33.7248 974.0
33.7917 985.0
33.8585 997.0
33.9254 912.0
33.9922 920.0
34.0591 910.0
34.1259 907.0
34.1928 865.0
34.2596 915.0
34.3264 881.0
34.3933 937.0
34.4601 897.0
34.527 899.0
34.5938 847.0
34.6607 809.0
34.7275 788.0
34.7944 851.0
34.8612 854.0
34.928 866.0
34.9949 876.0
35.0617 875.0
35.1286 849.0
35.1954 773.0
35.2623 832.0
35.3291 820.0
35.396 759.0
35.4628 782.0
35.5297 837.0
35.5965 807.0
35.6633 747.0
35.7302 763.0
35.797 766.0
35.8639 756.0
35.9307 751.0
35.9976 787.0
36.0644 786.0
36.1313 787.0
36.1981 800.0
36.265 768.0
36.3318 750.0
36.3986 834.0
36.4655 722.0
36.5323 767.0
36.5992 769.0
36.666 787.0
36.7329 719.0
36.7997 703.0
36.8666 708.0
36.9334 665.0
37.0002 672.0
37.0671 674.0
37.1339 637.0
37.2008 636.0
37.2676 628.0
37.3345 636.0
37.4013 656.0
37.4682 665.0
37.535 632.0
37.6019 644.0
37.6687 575.0
37.7355 566.0
37.8024 631.0
37.8692 621.0
37.9361 602.0
38.0029 627.0
38.0698 589.0
38.1366 592.0
38.2035 584.0
38.2703 611.0
38.3371 677.0
38.404 594.0
38.4708 563.0
38.5377 604.0
38.6045 609.0
38.6714 619.0
38.7382 620.0
38.8051 620.0
38.8719 592.0
38.9388 612.0
39.0056 639.0
39.0724 625.0
39.1393 678.0
39.2061 645.0
39.273 673.0
39.3398 652.0
39.4067 672.0
39.4735 669.0
39.5404 672.0
39.6072 677.0
39.6741 639.0
39.7409 622.0
39.8077 622.0
39.8746 620.0
39.9414 644.0
40.0083 605.0
40.0751 567.0
40.142 618.0
40.2088 627.0
40.2757 560.0
40.3425 573.0
40.4093 581.0
40.4762 590.0
40.543 669.0
40.6099 638.0
40.6767 561.0
40.7436 626.0
40.8104 592.0
40.8773 594.0
40.9441 598.0
41.011 622.0
41.0778 626.0
41.1446 573.0
41.2115 588.0
41.2783 613.0
41.3452 653.0
41.412 643.0
41.4789 631.0
41.5457 629.0
41.6126 682.0
41.6794 672.0
41.7462 681.0
41.8131 679.0
41.8799 619.0
41.9468 619.0
42.0136 643.0
42.0805 603.0
42.1473 631.0
42.2142 645.0
42.281 580.0
42.3479 589.0
42.4147 582.0
42.4815 541.0
42.5484 610.0
42.6152 588.0
42.6821 584.0
42.7489 601.0
42.8158 651.0
42.8826 620.0
42.9495 612.0
43.0163 579.0
43.0831 642.0
43.15 625.0
43.2168 645.0
43.2837 673.0
43.3505 631.0
43.4174 631.0
43.4842 641.0
43.5511 652.0
43.6179 666.0
43.6848 657.0
43.7516 568.0
43.8184 590.0
43.8853 649.0
43.9521 616.0
44.019 616.0
44.0858 643.0
44.1527 617.0
44.2195 598.0
44.2864 611.0
44.3532 549.0
44.4201 574.0
44.4869 582.0
44.5537 583.0
44.6206 584.0
44.6874 580.0
44.7543 517.0
44.8211 584.0
44.888 589.0
44.9548 618.0
45.0217 585.0
45.0885 603.0
45.1553 584.0
45.2222 580.0
45.289 568.0
45.3559 511.0
45.4227 579.0
45.4896 578.0
45.5564 589.0
45.6233 552.0
45.6901 569.0
45.757 543.0
45.8238 583.0
45.8906 570.0
45.9575 571.0
46.0243 523.0
46.0912 580.0
46.158 544.0
46.2249 548.0
46.2917 531.0
46.3586 580.0
46.4254 555.0
46.4922 550.0
46.5591 586.0
46.6259 523.0
46.6928 532.0
46.7596 586.0
46.8265 537.0
46.8933 569.0
46.9602 541.0
47.027 525.0
47.0939 517.0
47.1607 602.0
47.2275 524.0
47.2944 574.0
47.3612 565.0
47.4281 550.0
47.4949 545.0
47.5618 585.0
47.6286 549.0
47.6955 592.0
47.7623 507.0
47.8291 590.0
47.896 561.0
47.9628 528.0
48.0297 537.0
48.0965 545.0
48.1634 536.0
48.2302 574.0
48.2971 550.0
48.3639 524.0
48.4308 583.0
48.4976 523.0
48.5644 496.0
48.6313 566.0
48.6981 560.0
48.765 554.0
48.8318 600.0
48.8987 572.0
48.9655 607.0
49.0324 663.0
49.0992 625.0
49.1661 636.0
49.2329 667.0
49.2997 643.0
49.3666 676.0
49.4334 693.0
49.5003 596.0
49.5671 691.0
49.634 614.0
49.7008 649.0
49.7677 589.0
49.8345 616.0
49.9013 605.0
49.9682 599.0
50.035 605.0
50.1019 589.0
50.1687 618.0
50.2356 595.0
50.3024 573.0
50.3693 635.0
50.4361 581.0
50.503 649.0
50.5698 635.0
50.6366 611.0
50.7035 642.0
50.7703 599.0
50.8372 615.0
50.904 612.0
50.9709 627.0
51.0377 688.0
51.1046 623.0
51.1714 611.0
51.2382 623.0
51.3051 556.0
51.3719 584.0
51.4388 581.0
51.5056 568.0
51.5725 589.0
51.6393 589.0
51.7062 592.0
51.773 603.0
51.8399 561.0
51.9067 613.0
51.9735 599.0
52.0404 568.0
52.1072 500.0
52.1741 587.0
52.2409 563.0
52.3078 516.0
52.3746 591.0
52.4415 575.0
52.5083 589.0
52.5751 551.0
52.642 570.0
52.7088 552.0
52.7757 557.0
52.8425 570.0
52.9094 544.0
52.9762 503.0
53.0431 529.0
53.1099 532.0
53.1768 572.0
53.2436 512.0
53.3104 549.0
53.3773 550.0
53.4441 508.0
53.511 554.0
53.5778 551.0
53.6447 569.0
53.7115 572.0
53.7784 550.0
53.8452 523.0
53.9121 532.0
53.9789 547.0
54.0457 555.0
54.1126 554.0
54.1794 537.0
54.2463 554.0
54.3131 527.0
54.38 502.0
54.4468 521.0
54.5137 535.0
54.5805 525.0
54.6473 502.0
54.7142 525.0
54.781 583.0
54.8479 505.0
54.9147 486.0
54.9816 528.0
55.0484 504.0
55.1153 513.0
55.1821 555.0
55.249 532.0
55.3158 520.0
55.3826 548.0
55.4495 526.0
55.5163 560.0
55.5832 547.0
55.65 570.0
55.7169 599.0
55.7837 561.0
55.8506 592.0
55.9174 529.0
55.9842 598.0
56.0511 607.0
56.1179 599.0
56.1848 510.0
56.2516 570.0
56.3185 525.0
56.3853 549.0
56.4522 529.0
56.519 574.0
56.5859 524.0
56.6527 512.0
56.7195 510.0
56.7864 535.0
56.8532 506.0
56.9201 526.0
56.9869 489.0
57.0538 518.0
57.1206 521.0
57.1875 527.0
57.2543 523.0
57.3212 540.0
57.388 481.0
57.4548 508.0
57.5217 507.0
57.5885 513.0
57.6554 494.0
57.7222 477.0
57.7891 490.0
57.8559 480.0
57.9228 457.0
57.9896 481.0
58.0564 471.0
58.1233 478.0
58.1901 466.0
58.257 481.0
58.3238 496.0
58.3907 490.0
58.4575 478.0
58.5244 480.0
58.5912 458.0
58.6581 424.0
58.7249 459.0
58.7917 540.0
58.8586 482.0
58.9254 486.0
58.9923 473.0
59.0591 495.0
59.126 475.0
59.1928 513.0
59.2597 518.0
59.3265 478.0
59.3933 544.0
59.4602 516.0
59.527 532.0
59.5939 507.0
59.6607 460.0
59.7276 501.0
59.7944 534.0
59.8613 525.0
59.9281 508.0
59.995 528.0
60.0618 516.0
60.1286 462.0
60.1955 448.0
60.2623 490.0
60.3292 519.0
60.396 498.0
60.4629 479.0
60.5297 529.0
60.5966 538.0
60.6634 507.0
60.7302 479.0
60.7971 471.0
60.8639 495.0
60.9308 489.0
60.9976 472.0
61.0645 500.0
61.1313 473.0
61.1982 432.0
61.265 456.0
61.3319 505.0
61.3987 491.0
61.4655 472.0
61.5324 487.0
61.5992 440.0
61.6661 478.0
61.7329 471.0
61.7998 489.0
61.8666 487.0
61.9335 475.0
62.0003 454.0
62.0672 490.0
62.134 465.0
62.2008 436.0
62.2677 488.0
62.3345 442.0
62.4014 470.0
62.4682 417.0
62.5351 460.0
62.6019 461.0
62.6688 459.0
62.7356 403.0
62.8024 480.0
62.8693 467.0
62.9361 460.0
63.003 445.0
63.0698 422.0
63.1367 474.0
63.2035 448.0
63.2704 498.0
63.3372 489.0
63.4041 486.0
63.4709 438.0
63.5377 441.0
63.6046 461.0
63.6714 438.0
63.7383 440.0
63.8051 487.0
63.872 446.0
63.9388 475.0
64.0057 429.0
64.0725 411.0
64.1393 464.0
64.2062 479.0
64.273 441.0
64.3399 462.0
64.4067 435.0
64.4736 448.0
64.5404 506.0
64.6073 439.0
64.6741 418.0
64.741 461.0
64.8078 451.0
64.8746 431.0
64.9415 501.0
65.0083 469.0
65.0752 442.0
65.142 490.0
65.2089 402.0
65.2757 442.0
65.3426 453.0
65.4094 458.0
65.4762 420.0
65.5431 446.0
65.6099 435.0
65.6768 438.0
65.7436 436.0
65.8105 457.0
65.8773 442.0
65.9442 461.0
66.011 447.0
66.0779 442.0
66.1447 447.0
66.2115 442.0
66.2784 455.0
66.3452 423.0
66.4121 411.0
66.4789 470.0
66.5458 464.0
66.6126 433.0
66.6795 460.0
66.7463 464.0
66.8132 487.0
66.88 459.0
66.9468 479.0
67.0137 482.0
67.0805 472.0
67.1474 488.0
67.2142 495.0
67.2811 477.0
67.3479 424.0
67.4148 471.0
67.4816 481.0
67.5484 436.0
67.6153 460.0
67.6821 431.0
67.749 454.0
67.8158 477.0
67.8827 454.0
67.9495 460.0
68.0164 429.0
68.0832 434.0
68.1501 392.0
68.2169 391.0
68.2837 412.0
68.3506 430.0
68.4174 371.0
68.4843 440.0
68.5511 449.0
68.618 439.0
68.6848 442.0
68.7517 424.0
68.8185 419.0
68.8853 446.0
68.9522 435.0
69.019 453.0
69.0859 422.0
69.1527 424.0
69.2196 414.0
69.2864 429.0
69.3533 439.0
69.4201 409.0
69.487 411.0
69.5538 400.0
69.6206 409.0
69.6875 404.0
69.7543 420.0
69.8212 409.0
69.888 416.0
69.9549 420.0
70.0217 384.0
70.0886 404.0
70.1554 406.0
70.2222 476.0
70.2891 407.0
70.3559 415.0
70.4228 418.0
70.4896 460.0
70.5565 412.0
70.6233 435.0
70.6902 443.0
70.757 444.0
70.8239 443.0
70.8907 411.0
70.9575 438.0
71.0244 420.0
71.0912 415.0
71.1581 409.0
71.2249 406.0
71.2918 377.0
71.3586 403.0
71.4255 418.0
71.4923 399.0
71.5592 413.0
71.626 417.0
71.6928 371.0
71.7597 409.0
71.8265 413.0
71.8934 382.0
71.9602 383.0
72.0271 423.0
72.0939 410.0
72.1608 394.0
72.2276 419.0
72.2944 414.0
72.3613 438.0
72.4281 412.0
72.495 375.0
72.5618 377.0
72.6287 365.0
72.6955 423.0
72.7624 411.0
72.8292 401.0
72.8961 350.0
72.9629 402.0
73.0297 366.0
73.0966 393.0
73.1634 392.0
73.2303 417.0
73.2971 412.0
73.364 415.0
73.4308 409.0
73.4977 395.0
73.5645 416.0
73.6313 387.0
73.6982 392.0
73.765 379.0
73.8319 401.0
73.8987 384.0
73.9656 381.0
74.0324 407.0
74.0993 351.0
74.1661 416.0
74.233 365.0
74.2998 362.0
74.3666 381.0
74.4335 372.0
74.5003 350.0
74.5672 393.0
74.634 432.0
74.7009 391.0
74.7677 347.0
74.8346 348.0
74.9014 395.0
74.9683 376.0
75.0351 354.0
75.1019 393.0
75.1688 407.0
75.2356 423.0
75.3025 364.0
75.3693 395.0
75.4362 375.0
75.503 371.0
75.5699 367.0
75.6367 381.0
75.7035 372.0
75.7704 332.0
75.8372 365.0
75.9041 383.0
75.9709 324.0
76.0378 389.0
76.1046 380.0
76.1715 372.0
76.2383 409.0
76.3052 392.0
76.372 369.0
76.4388 385.0
76.5057 381.0
76.5725 342.0
76.6394 369.0
76.7062 388.0
76.7731 322.0
76.8399 335.0
76.9068 341.0
76.9736 403.0
77.0404 369.0
77.1073 348.0
77.1741 334.0
77.241 322.0
77.3078 363.0
77.3747 351.0
77.4415 338.0
77.5084 320.0
77.5752 347.0
77.6421 352.0
77.7089 339.0
77.7757 328.0
77.8426 322.0
77.9094 361.0
77.9763 323.0
78.0431 366.0
78.11 320.0
78.1768 356.0
78.2437 347.0
78.3105 337.0
78.3773 323.0
78.4442 345.0
78.511 364.0
78.5779 326.0
78.6447 331.0
78.7116 325.0
78.7784 337.0
78.8453 323.0
78.9121 357.0
78.979 329.0
79.0458 290.0
79.1126 347.0
79.1795 305.0
79.2463 305.0
79.3132 300.0
79.38 319.0
79.4469 314.0
79.5137 337.0
79.5806 304.0
79.6474 321.0
79.7143 316.0
79.7811 328.0
79.8479 321.0
79.9148 269.0
79.9816 295.0
80.0485 335.0
80.1153 325.0
80.1822 321.0
80.249 336.0
80.3159 299.0
80.3827 321.0
80.4495 299.0
80.5164 307.0
80.5832 268.0
80.6501 310.0
80.7169 317.0
80.7838 299.0
80.8506 306.0
80.9175 335.0
80.9843 282.0
81.0512 308.0
81.118 263.0
81.1848 264.0
81.2517 306.0
81.3185 299.0
81.3854 307.0
81.4522 264.0
81.5191 278.0
81.5859 279.0
81.6528 288.0
81.7196 289.0
81.7864 306.0
81.8533 277.0
81.9201 276.0
81.987 272.0
82.0538 269.0
82.1207 279.0
82.1875 268.0
82.2544 279.0
82.3212 313.0
82.3881 276.0
82.4549 253.0
82.5217 292.0
82.5886 269.0
82.6554 275.0
82.7223 289.0
82.7891 292.0
82.856 286.0
82.9228 279.0
82.9897 267.0
83.0565 242.0
83.1233 267.0
83.1902 261.0
83.257 297.0
83.3239 257.0
83.3907 261.0
83.4576 271.0
83.5244 256.0
83.5913 269.0
83.6581 286.0
83.725 256.0
83.7918 263.0
83.8586 257.0
83.9255 258.0
83.9923 278.0
84.0592 268.0
84.126 278.0
84.1929 269.0
84.2597 252.0
84.3266 291.0
84.3934 260.0
84.4603 233.0
84.5271 242.0
84.5939 250.0
84.6608 241.0
84.7276 260.0
84.7945 233.0
84.8613 254.0
84.9282 286.0
84.995 267.0
85.0619 255.0
85.1287 246.0
85.1955 266.0
85.2624 276.0
85.3292 226.0
85.3961 283.0
85.4629 285.0
85.5298 257.0
85.5966 256.0
85.6635 263.0
85.7303 263.0
85.7972 241.0
85.864 236.0
85.9308 256.0
85.9977 254.0
86.0645 225.0
86.1314 251.0
86.1982 215.0
86.2651 264.0
86.3319 210.0
86.3988 235.0
86.4656 219.0
86.5324 274.0
86.5993 242.0
86.6661 252.0
86.733 256.0
86.7998 224.0
86.8667 253.0
86.9335 228.0
87.0004 230.0
87.0672 222.0
87.1341 238.0
87.2009 232.0
87.2677 224.0
87.3346 220.0
87.4014 210.0
87.4683 227.0
87.5351 203.0
87.602 232.0
87.6688 217.0
87.7357 231.0
87.8025 235.0
87.8693 240.0
87.9362 204.0
88.003 246.0
88.0699 241.0
88.1367 248.0
88.2036 225.0
88.2704 246.0
88.3373 215.0
88.4041 231.0
88.471 205.0
88.5378 238.0
88.6046 254.0
88.6715 226.0
88.7383 239.0
88.8052 219.0
88.872 236.0
88.9389 231.0
89.0057 231.0
89.0726 213.0
89.1394 251.0
89.2063 198.0
89.2731 196.0
89.3399 261.0
89.4068 228.0
89.4736 223.0
89.5405 225.0
89.6073 215.0
89.6742 203.0
89.741 228.0
89.8079 220.0
89.8747 222.0
89.9415 235.0