File: code/XRD_Analysis/External Sources/Alex_SAPO/20220704_SAPO-34_70_220627_calc650C20h.xy
4.98146 1546.0
5.0483 1489.0
5.11515 1423.0
5.18199 1491.0
5.24884 1451.0
5.31568 1333.0
5.38253 1400.0
5.44937 1448.0
5.51622 1403.0
5.58306 1386.0
5.64991 1315.0
5.71675 1232.0
5.7836 1304.0
5.85044 1293.0
5.91729 1266.0
5.98413 1188.0
6.05098 1276.0
6.11782 1209.0
6.18467 1181.0
6.25151 1143.0
6.31836 1141.0
6.3852 1141.0
6.45205 1169.0
6.51889 1098.0
6.58574 1126.0
6.65258 1208.0
6.71943 1115.0
6.78627 1059.0
6.85312 1062.0
6.91996 1064.0
6.98681 1035.0
7.05365 1048.0
7.1205 1010.0
7.18734 1053.0
7.25419 1053.0
7.32103 1050.0
7.38788 1050.0
7.45472 1000.0
7.52157 1012.0
7.58841 1054.0
7.65526 1018.0
7.7221 942.0
7.78895 1000.0
7.85579 975.0
7.92264 969.0
7.98948 912.0
8.05633 928.0
8.12317 973.0
8.19002 884.0
8.25686 955.0
8.32371 934.0
8.39055 956.0
8.4574 951.0
8.52424 892.0
8.59109 884.0
8.65793 872.0
8.72478 881.0
8.79162 887.0
8.85847 883.0
8.92532 888.0
8.99216 892.0
9.05901 899.0
9.12585 941.0
9.1927 1033.0
9.25954 1032.0
9.32639 1318.0
9.39323 2561.0
9.46008 7058.0
9.52692 16133.0
9.59377 7266.0
9.66061 1788.0
9.72746 1207.0
9.7943 1150.0
9.86115 1088.0
9.92799 1023.0
9.99484 933.0
10.0617 939.0
10.1285 973.0
10.1954 900.0
10.2622 817.0
10.3291 926.0
10.3959 912.0
10.4628 839.0
10.5296 819.0
10.5964 779.0
10.6633 891.0
10.7301 832.0
10.797 831.0
10.8638 838.0
10.9307 863.0
10.9975 855.0
11.0644 866.0
11.1312 814.0
11.198 826.0
11.2649 783.0
11.3317 823.0
11.3986 788.0
11.4654 805.0
11.5323 775.0
11.5991 829.0
11.666 791.0
11.7328 842.0
11.7997 775.0
11.8665 807.0
11.9333 792.0
12.0002 826.0
12.067 834.0
12.1339 798.0
12.2007 824.0
12.2676 850.0
12.3344 813.0
12.4013 846.0
12.4681 793.0
12.5349 910.0
12.6018 828.0
12.6686 873.0
12.7355 856.0
12.8023 1050.0
12.8692 1778.0
12.936 3777.0
13.0029 3608.0
13.0697 1547.0
13.1366 1019.0
13.2034 958.0
13.2702 934.0
13.3371 989.0
13.4039 1059.0
13.4708 963.0
13.5376 870.0
13.6045 799.0
13.6713 758.0
13.7382 679.0
13.805 668.0
13.8719 737.0
13.9387 757.0
14.0055 901.0
14.0724 898.0
14.1392 762.0
14.2061 790.0
14.2729 735.0
14.3398 669.0
14.4066 713.0
14.4735 772.0
14.5403 736.0
14.6071 694.0
14.674 729.0
14.7408 760.0
14.8077 722.0
14.8745 729.0
14.9414 753.0
15.0082 773.0
15.0751 734.0
15.1419 777.0
15.2088 762.0
15.2756 726.0
15.3424 700.0
15.4093 778.0
15.4761 729.0
15.543 760.0
15.6098 741.0
15.6767 791.0
15.7435 785.0
15.8104 851.0
15.8772 802.0
15.944 805.0
16.0109 1176.0
16.0777 2459.0
16.1446 3679.0
16.2114 2127.0
16.2783 1039.0
16.3451 942.0
16.412 910.0
16.4788 853.0
16.5457 1006.0
16.6125 948.0
16.6793 989.0
16.7462 1002.0
16.813 1084.0
16.8799 1074.0
16.9467 1001.0
17.0136 1153.0
17.0804 1135.0
17.1473 1122.0
17.2141 1127.0
17.2809 1120.0
17.3478 1068.0
17.4146 1080.0
17.4815 1078.0
17.5483 1136.0
17.6152 1109.0
17.682 1148.0
17.7489 1387.0
17.8157 1757.0
17.8826 1803.0
17.9494 1401.0
18.0162 1147.0
18.0831 985.0
18.1499 938.0
18.2168 894.0
18.2836 902.0
18.3505 922.0
18.4173 845.0
18.4842 891.0
18.551 883.0
18.6179 931.0
18.6847 909.0
18.7515 920.0
18.8184 878.0
18.8852 895.0
18.9521 942.0
19.0189 989.0
19.0858 1309.0
19.1526 1635.0
19.2195 1448.0
19.2863 1101.0
19.3531 953.0
19.42 918.0
19.4868 930.0
19.5537 971.0
19.6205 957.0
19.6874 974.0
19.7542 955.0
19.8211 1048.0
19.8879 990.0
19.9548 1031.0
20.0216 1057.0
20.0884 1082.0
20.1553 1136.0
20.2221 1177.0
20.289 1199.0
20.3558 1216.0
20.4227 1261.0
20.4895 1343.0
20.5564 1453.0
20.6232 1942.0
20.69 4085.0
20.7569 6450.0
20.8237 5140.0
20.8906 2599.0
20.9574 1876.0
21.0243 1567.0
21.0911 1557.0
21.158 1553.0
21.2248 1546.0
21.2917 1581.0
21.3585 1625.0
21.4253 1612.0
21.4922 1419.0
21.559 1332.0
21.6259 1162.0
21.6927 1198.0
21.7596 1059.0
21.8264 1036.0
21.8933 1026.0
21.9601 1021.0
22.0269 1129.0
22.0938 1289.0
22.1606 1328.0
22.2275 1248.0
22.2943 1110.0
22.3612 1094.0
22.428 1147.0
22.4949 1150.0
22.5617 1205.0
22.6286 1253.0
22.6954 1128.0
22.7622 1200.0
22.8291 1162.0
22.8959 1246.0
22.9628 1228.0
23.0296 1262.0
23.0965 1306.0
23.1633 1688.0
23.2302 2149.0
23.297 2055.0
23.3639 1505.0
23.4307 1310.0
23.4975 1354.0
23.5644 1270.0
23.6312 1257.0
23.6981 1303.0
23.7649 1368.0
23.8318 1349.0
23.8986 1394.0
23.9655 1366.0
24.0323 1429.0
24.0991 1343.0
24.166 1441.0
24.2328 1401.0
24.2997 1426.0
24.3665 1435.0
24.4334 1410.0
24.5002 1440.0
24.5671 1447.0
24.6339 1500.0
24.7008 1551.0
24.7676 1653.0
24.8344 1569.0
24.9013 1677.0
24.9681 1991.0
25.035 2367.0
25.1018 2457.0
25.1687 2172.0
25.2355 1853.0
25.3024 1708.0
25.3692 1590.0
25.436 1558.0
25.5029 1658.0
25.5697 1620.0
25.6366 1560.0
25.7034 1579.0
25.7703 1488.0
25.8371 1595.0
25.904 1616.0
25.9708 1753.0
26.0377 2268.0
26.1045 3128.0
26.1713 3301.0
26.2382 2584.0
26.305 1877.0
26.3719 1634.0
26.4387 1618.0
26.5056 1496.0
26.5724 1473.0
26.6393 1376.0
26.7061 1440.0
26.773 1492.0
26.8398 1383.0
26.9066 1446.0
26.9735 1355.0
27.0403 1424.0
27.1072 1364.0
27.174 1411.0
27.2409 1383.0
27.3077 1286.0
27.3746 1417.0
27.4414 1319.0
27.5082 1363.0
27.5751 1315.0
27.6419 1385.0
27.7088 1378.0
27.7756 1469.0
27.8425 1730.0
27.9093 1685.0
27.9762 1588.0
28.043 1474.0
28.1099 1499.0
28.1767 1607.0
28.2435 1674.0
28.3104 1865.0
28.3772 1822.0
28.4441 1695.0
28.5109 1495.0
28.5778 1455.0
28.6446 1459.0
28.7115 1361.0
28.7783 1339.0
28.8451 1352.0
28.912 1351.0
28.9788 1326.0
29.0457 1322.0
29.1125 1350.0
29.1794 1337.0
29.2462 1309.0
29.3131 1414.0
29.3799 1359.0
29.4468 1453.0
29.5136 1378.0
29.5804 1409.0
29.6473 1464.0
29.7141 1568.0
29.781 1756.0
29.8478 1721.0
29.9147 1649.0
29.9815 1516.0
30.0484 1550.0
30.1152 1603.0
30.182 1742.0
30.2489 1753.0
30.3157 1679.0
30.3826 1911.0
30.4494 1972.0
30.5163 2056.0
30.5831 2137.0
30.65 2230.0
30.7168 2550.0
30.7837 2937.0
30.8505 3674.0
30.9173 4285.0
30.9842 4143.0
31.051 3491.0
31.1179 3220.0
31.1847 3148.0
31.2516 3532.0
31.3184 3298.0
31.3853 3023.0
31.4521 2480.0
31.519 2000.0
31.5858 1850.0
31.6526 1738.0
31.7195 1694.0
31.7863 1737.0
31.8532 1789.0
31.92 1708.0
31.9869 1620.0
32.0537 1431.0
32.1206 1394.0
32.1874 1401.0
32.2542 1425.0
32.3211 1285.0
32.3879 1308.0
32.4548 1241.0
32.5216 1258.0
32.5885 1315.0
32.6553 1328.0
32.7222 1322.0
32.789 1271.0
32.8559 1176.0
32.9227 1140.0
32.9895 1057.0
33.0564 1117.0
33.1232 1116.0
33.1901 1105.0
33.2569 1062.0
33.3238 1056.0
33.3906 1098.0
33.4575 1044.0
33.5243 1098.0
33.5911 1071.0
33.658 1192.0
33.7248 1173.0
33.7917 1110.0
33.8585 1104.0
33.9254 1017.0
33.9922 1005.0
34.0591 1018.0
34.1259 1041.0
34.1928 988.0
34.2596 978.0
34.3264 1008.0
34.3933 980.0
34.4601 935.0
34.527 1029.0
34.5938 984.0
34.6607 990.0
34.7275 1142.0
34.7944 1237.0
34.8612 1177.0
34.928 1206.0
34.9949 1071.0
35.0617 959.0
35.1286 984.0
35.1954 960.0
35.2623 982.0
35.3291 956.0
35.396 966.0
35.4628 958.0
35.5297 833.0
35.5965 853.0
35.6633 838.0
35.7302 910.0
35.797 851.0
35.8639 815.0
35.9307 824.0
35.9976 842.0
36.0644 794.0
36.1313 845.0
36.1981 967.0
36.265 893.0
36.3318 886.0
36.3986 844.0
36.4655 856.0
36.5323 801.0
36.5992 787.0
36.666 761.0
36.7329 756.0
36.7997 739.0
36.8666 787.0
36.9334 700.0
37.0002 732.0
37.0671 694.0
37.1339 728.0
37.2008 708.0
37.2676 658.0
37.3345 736.0
37.4013 725.0
37.4682 760.0
37.535 711.0
37.6019 712.0
37.6687 728.0
37.7355 679.0
37.8024 698.0
37.8692 678.0
37.9361 724.0
38.0029 667.0
38.0698 670.0
38.1366 707.0
38.2035 677.0
38.2703 683.0
38.3371 657.0
38.404 666.0
38.4708 638.0
38.5377 690.0
38.6045 643.0
38.6714 649.0
38.7382 664.0
38.8051 684.0
38.8719 654.0
38.9388 683.0
39.0056 717.0
39.0724 647.0
39.1393 682.0
39.2061 724.0
39.273 686.0
39.3398 708.0
39.4067 725.0
39.4735 642.0
39.5404 752.0
39.6072 709.0
39.6741 711.0
39.7409 747.0
39.8077 706.0
39.8746 726.0
39.9414 681.0
40.0083 677.0
40.0751 740.0
40.142 794.0
40.2088 729.0
40.2757 754.0
40.3425 697.0
40.4093 716.0
40.4762 683.0
40.543 670.0
40.6099 692.0
40.6767 661.0
40.7436 654.0
40.8104 634.0
40.8773 701.0
40.9441 685.0
41.011 683.0
41.0778 670.0
41.1446 665.0
41.2115 636.0
41.2783 679.0
41.3452 713.0
41.412 697.0
41.4789 669.0
41.5457 651.0
41.6126 670.0
41.6794 632.0
41.7462 693.0
41.8131 649.0
41.8799 669.0
41.9468 627.0
42.0136 665.0
42.0805 659.0
42.1473 616.0
42.2142 691.0
42.281 685.0
42.3479 692.0
42.4147 660.0
42.4815 626.0
42.5484 709.0
42.6152 705.0
42.6821 637.0
42.7489 674.0
42.8158 644.0
42.8826 679.0
42.9495 685.0
43.0163 692.0
43.0831 714.0
43.15 797.0
43.2168 734.0
43.2837 756.0
43.3505 706.0
43.4174 727.0
43.4842 682.0
43.5511 712.0
43.6179 704.0
43.6848 627.0
43.7516 730.0
43.8184 730.0
43.8853 714.0
43.9521 735.0
44.019 712.0
44.0858 669.0
44.1527 691.0
44.2195 685.0
44.2864 680.0
44.3532 660.0
44.4201 620.0
44.4869 637.0
44.5537 618.0
44.6206 663.0
44.6874 625.0
44.7543 626.0
44.8211 637.0
44.888 649.0
44.9548 678.0
45.0217 602.0
45.0885 651.0
45.1553 666.0
45.2222 638.0
45.289 646.0
45.3559 647.0
45.4227 604.0
45.4896 646.0
45.5564 631.0
45.6233 612.0
45.6901 675.0
45.757 628.0
45.8238 634.0
45.8906 605.0
45.9575 631.0
46.0243 615.0
46.0912 657.0
46.158 606.0
46.2249 590.0
46.2917 588.0
46.3586 538.0
46.4254 607.0
46.4922 667.0
46.5591 630.0
46.6259 554.0
46.6928 602.0
46.7596 586.0
46.8265 610.0
46.8933 630.0
46.9602 613.0
47.027 592.0
47.0939 656.0
47.1607 606.0
47.2275 622.0
47.2944 639.0
47.3612 628.0
47.4281 628.0
47.4949 616.0
47.5618 629.0
47.6286 609.0
47.6955 651.0
47.7623 613.0
47.8291 594.0
47.896 650.0
47.9628 632.0
48.0297 652.0
48.0965 690.0
48.1634 685.0
48.2302 684.0
48.2971 663.0
48.3639 679.0
48.4308 643.0
48.4976 647.0
48.5644 635.0
48.6313 651.0
48.6981 602.0
48.765 570.0
48.8318 639.0
48.8987 638.0
48.9655 639.0
49.0324 626.0
49.0992 701.0
49.1661 789.0
49.2329 727.0
49.2997 906.0
49.3666 894.0
49.4334 859.0
49.5003 798.0
49.5671 747.0
49.634 695.0
49.7008 631.0
49.7677 699.0
49.8345 712.0
49.9013 693.0
49.9682 706.0
50.035 632.0
50.1019 659.0
50.1687 597.0
50.2356 691.0
50.3024 629.0
50.3693 656.0
50.4361 696.0
50.503 659.0
50.5698 692.0
50.6366 617.0
50.7035 660.0
50.7703 630.0
50.8372 677.0
50.904 632.0
50.9709 704.0
51.0377 708.0
51.1046 740.0
51.1714 884.0
51.2382 748.0
51.3051 728.0
51.3719 737.0
51.4388 656.0
51.5056 676.0
51.5725 690.0
51.6393 647.0
51.7062 607.0
51.773 589.0
51.8399 666.0
51.9067 645.0
51.9735 638.0
52.0404 629.0
52.1072 596.0
52.1741 599.0
52.2409 610.0
52.3078 601.0
52.3746 614.0
52.4415 564.0
52.5083 600.0
52.5751 575.0
52.642 585.0
52.7088 595.0
52.7757 589.0
52.8425 628.0
52.9094 569.0
52.9762 611.0
53.0431 604.0
53.1099 556.0
53.1768 592.0
53.2436 569.0
53.3104 588.0
53.3773 636.0
53.4441 603.0
53.511 576.0
53.5778 590.0
53.6447 692.0
53.7115 614.0
53.7784 727.0
53.8452 684.0
53.9121 625.0
53.9789 684.0
54.0457 630.0
54.1126 643.0
54.1794 637.0
54.2463 590.0
54.3131 614.0
54.38 556.0
54.4468 576.0
54.5137 604.0
54.5805 642.0
54.6473 664.0
54.7142 644.0
54.781 556.0
54.8479 614.0
54.9147 600.0
54.9816 622.0
55.0484 611.0
55.1153 599.0
55.1821 611.0
55.249 576.0
55.3158 597.0
55.3826 586.0
55.4495 575.0
55.5163 585.0
55.5832 614.0
55.65 613.0
55.7169 595.0
55.7837 609.0
55.8506 586.0
55.9174 627.0
55.9842 597.0
56.0511 580.0
56.1179 629.0
56.1848 567.0
56.2516 603.0
56.3185 559.0
56.3853 595.0
56.4522 596.0
56.519 589.0
56.5859 658.0
56.6527 602.0
56.7195 597.0
56.7864 652.0
56.8532 622.0
56.9201 584.0
56.9869 587.0
57.0538 581.0
57.1206 630.0
57.1875 559.0
57.2543 592.0
57.3212 563.0
57.388 586.0
57.4548 565.0
57.5217 555.0
57.5885 509.0
57.6554 536.0
57.7222 555.0
57.7891 580.0
57.8559 561.0
57.9228 512.0
57.9896 527.0
58.0564 514.0
58.1233 500.0
58.1901 540.0
58.257 519.0
58.3238 490.0
58.3907 513.0
58.4575 507.0
58.5244 540.0
58.5912 553.0
58.6581 487.0
58.7249 545.0
58.7917 497.0
58.8586 532.0
58.9254 536.0
58.9923 500.0
59.0591 513.0
59.126 541.0
59.1928 567.0
59.2597 507.0
59.3265 528.0
59.3933 555.0
59.4602 519.0
59.527 554.0
59.5939 538.0
59.6607 510.0
59.7276 502.0
59.7944 584.0
59.8613 561.0
59.9281 601.0
59.995 519.0
60.0618 587.0
60.1286 587.0
60.1955 572.0
60.2623 590.0
60.3292 554.0
60.396 607.0
60.4629 560.0
60.5297 518.0
60.5966 540.0
60.6634 534.0
60.7302 504.0
60.7971 535.0
60.8639 559.0
60.9308 553.0
60.9976 522.0
61.0645 522.0
61.1313 502.0
61.1982 497.0
61.265 489.0
61.3319 498.0
61.3987 557.0
61.4655 526.0
61.5324 516.0
61.5992 568.0
61.6661 540.0
61.7329 582.0
61.7998 554.0
61.8666 570.0
61.9335 580.0
62.0003 560.0
62.0672 596.0
62.134 555.0
62.2008 518.0
62.2677 542.0
62.3345 564.0
62.4014 501.0
62.4682 516.0
62.5351 534.0
62.6019 504.0
62.6688 542.0
62.7356 559.0
62.8024 518.0
62.8693 541.0
62.9361 535.0
63.003 478.0
63.0698 541.0
63.1367 487.0
63.2035 490.0
63.2704 497.0
63.3372 537.0
63.4041 514.0
63.4709 478.0
63.5377 579.0
63.6046 519.0
63.6714 538.0
63.7383 548.0
63.8051 507.0
63.872 520.0
63.9388 547.0
64.0057 481.0
64.0725 491.0
64.1393 472.0
64.2062 504.0
64.273 501.0
64.3399 531.0
64.4067 532.0
64.4736 502.0
64.5404 520.0
64.6073 477.0
64.6741 522.0
64.741 548.0
64.8078 528.0
64.8746 541.0
64.9415 544.0
65.0083 488.0
65.0752 505.0
65.142 525.0
65.2089 544.0
65.2757 497.0
65.3426 521.0
65.4094 536.0
65.4762 512.0
65.5431 513.0
65.6099 560.0
65.6768 548.0
65.7436 548.0
65.8105 542.0
65.8773 545.0
65.9442 527.0
66.011 506.0
66.0779 612.0
66.1447 508.0
66.2115 522.0
66.2784 531.0
66.3452 512.0
66.4121 573.0
66.4789 547.0
66.5458 554.0
66.6126 555.0
66.6795 576.0
66.7463 572.0
66.8132 505.0
66.88 572.0
66.9468 560.0
67.0137 558.0
67.0805 590.0
67.1474 630.0
67.2142 549.0
67.2811 596.0
67.3479 550.0
67.4148 538.0
67.4816 552.0
67.5484 582.0
67.6153 559.0
67.6821 540.0
67.749 523.0
67.8158 514.0
67.8827 495.0
67.9495 520.0
68.0164 517.0
68.0832 528.0
68.1501 508.0
68.2169 504.0
68.2837 521.0
68.3506 495.0
68.4174 489.0
68.4843 500.0
68.5511 481.0
68.618 495.0
68.6848 477.0
68.7517 440.0
68.8185 512.0
68.8853 463.0
68.9522 475.0
69.019 504.0
69.0859 465.0
69.1527 469.0
69.2196 472.0
69.2864 454.0
69.3533 472.0
69.4201 469.0
69.487 489.0
69.5538 473.0
69.6206 493.0
69.6875 479.0
69.7543 464.0
69.8212 493.0
69.888 496.0
69.9549 470.0
70.0217 481.0
70.0886 511.0
70.1554 492.0
70.2222 528.0
70.2891 462.0
70.3559 496.0
70.4228 497.0
70.4896 457.0
70.5565 451.0
70.6233 467.0
70.6902 474.0
70.757 463.0
70.8239 494.0
70.8907 507.0
70.9575 512.0
71.0244 505.0
71.0912 496.0
71.1581 473.0
71.2249 474.0
71.2918 458.0
71.3586 511.0
71.4255 491.0
71.4923 472.0
71.5592 469.0
71.626 480.0
71.6928 473.0
71.7597 492.0
71.8265 463.0
71.8934 466.0
71.9602 458.0
72.0271 505.0
72.0939 508.0
72.1608 457.0
72.2276 436.0
72.2944 487.0
72.3613 479.0
72.4281 432.0
72.495 462.0
72.5618 426.0
72.6287 426.0
72.6955 411.0
72.7624 460.0
72.8292 454.0
72.8961 448.0
72.9629 471.0
73.0297 466.0
73.0966 418.0
73.1634 427.0
73.2303 460.0
73.2971 434.0
73.364 425.0
73.4308 411.0
73.4977 446.0
73.5645 426.0
73.6313 434.0
73.6982 420.0
73.765 414.0
73.8319 453.0
73.8987 433.0
73.9656 409.0
74.0324 416.0
74.0993 464.0
74.1661 400.0
74.233 444.0
74.2998 396.0
74.3666 408.0
74.4335 404.0
74.5003 358.0
74.5672 360.0
74.634 408.0
74.7009 434.0
74.7677 393.0
74.8346 413.0
74.9014 438.0
74.9683 440.0
75.0351 407.0
75.1019 422.0
75.1688 429.0
75.2356 386.0
75.3025 403.0
75.3693 440.0
75.4362 436.0
75.503 406.0
75.5699 368.0
75.6367 432.0
75.7035 395.0
75.7704 386.0
75.8372 423.0
75.9041 399.0
75.9709 419.0
76.0378 444.0
76.1046 430.0
76.1715 358.0
76.2383 412.0
76.3052 408.0
76.372 420.0
76.4388 393.0
76.5057 431.0
76.5725 403.0
76.6394 431.0
76.7062 427.0
76.7731 408.0
76.8399 377.0
76.9068 341.0
76.9736 404.0
77.0404 412.0
77.1073 348.0
77.1741 413.0
77.241 378.0
77.3078 384.0
77.3747 386.0
77.4415 392.0
77.5084 429.0
77.5752 379.0
77.6421 350.0
77.7089 430.0
77.7757 373.0
77.8426 393.0
77.9094 401.0
77.9763 354.0
78.0431 380.0
78.11 357.0
78.1768 383.0
78.2437 358.0
78.3105 381.0
78.3773 391.0
78.4442 397.0
78.511 369.0
78.5779 366.0
78.6447 377.0
78.7116 386.0
78.7784 354.0
78.8453 370.0
78.9121 368.0
78.979 337.0
79.0458 361.0
79.1126 361.0
79.1795 352.0
79.2463 409.0
79.3132 351.0
79.38 394.0
79.4469 360.0
79.5137 376.0
79.5806 345.0
79.6474 349.0
79.7143 379.0
79.7811 367.0
79.8479 340.0
79.9148 376.0
79.9816 365.0
80.0485 391.0
80.1153 373.0
80.1822 331.0
80.249 334.0
80.3159 337.0
80.3827 353.0
80.4495 357.0
80.5164 332.0
80.5832 349.0
80.6501 347.0
80.7169 334.0
80.7838 376.0
80.8506 334.0
80.9175 342.0
80.9843 339.0
81.0512 329.0
81.118 368.0
81.1848 347.0
81.2517 303.0
81.3185 356.0
81.3854 365.0
81.4522 350.0
81.5191 328.0
81.5859 304.0
81.6528 303.0
81.7196 308.0
81.7864 322.0
81.8533 338.0
81.9201 316.0
81.987 305.0
82.0538 279.0
82.1207 349.0
82.1875 285.0
82.2544 332.0
82.3212 335.0
82.3881 291.0
82.4549 336.0
82.5217 311.0
82.5886 297.0
82.6554 342.0
82.7223 314.0
82.7891 317.0
82.856 324.0
82.9228 325.0
82.9897 313.0
83.0565 324.0
83.1233 270.0
83.1902 269.0
83.257 291.0
83.3239 298.0
83.3907 278.0
83.4576 308.0
83.5244 322.0
83.5913 278.0
83.6581 306.0
83.725 317.0
83.7918 285.0
83.8586 309.0
83.9255 308.0
83.9923 291.0
84.0592 267.0
84.126 268.0
84.1929 279.0
84.2597 280.0
84.3266 289.0
84.3934 278.0
84.4603 293.0
84.5271 301.0
84.5939 268.0
84.6608 277.0
84.7276 270.0
84.7945 284.0
84.8613 287.0
84.9282 267.0
84.995 263.0
85.0619 290.0
85.1287 231.0
85.1955 276.0
85.2624 246.0
85.3292 288.0
85.3961 270.0
85.4629 273.0
85.5298 244.0
85.5966 298.0
85.6635 305.0
85.7303 257.0
85.7972 279.0
85.864 255.0
85.9308 256.0
85.9977 264.0
86.0645 288.0
86.1314 276.0
86.1982 264.0
86.2651 273.0
86.3319 232.0
86.3988 270.0
86.4656 268.0
86.5324 269.0
86.5993 269.0
86.6661 248.0
86.733 270.0
86.7998 267.0
86.8667 288.0
86.9335 308.0
87.0004 246.0
87.0672 263.0
87.1341 290.0
87.2009 250.0
87.2677 254.0
87.3346 275.0
87.4014 264.0
87.4683 243.0
87.5351 251.0
87.602 233.0
87.6688 246.0
87.7357 244.0
87.8025 237.0
87.8693 227.0
87.9362 264.0
88.003 255.0
88.0699 229.0
88.1367 264.0
88.2036 264.0
88.2704 278.0
88.3373 282.0
88.4041 255.0
88.471 256.0
88.5378 257.0
88.6046 285.0
88.6715 276.0
88.7383 231.0
88.8052 260.0
88.872 269.0
88.9389 241.0
89.0057 262.0
89.0726 260.0
89.1394 251.0
89.2063 242.0
89.2731 245.0
89.3399 261.0
89.4068 270.0
89.4736 264.0
89.5405 244.0
89.6073 240.0
89.6742 244.0
89.741 283.0
89.8079 246.0
89.8747 235.0
89.9415 276.0