File: code/XRD_Analysis/External Sources/Alex_SAPO/20220715_SAPO-34_70_2_220707_calc650C_20h.xy
4.98146 1455.0
5.0483 1457.0
5.11515 1506.0
5.18199 1396.0
5.24884 1372.0
5.31568 1322.0
5.38253 1355.0
5.44937 1294.0
5.51622 1297.0
5.58306 1258.0
5.64991 1250.0
5.71675 1207.0
5.7836 1177.0
5.85044 1206.0
5.91729 1140.0
5.98413 1159.0
6.05098 1135.0
6.11782 1114.0
6.18467 1176.0
6.25151 1193.0
6.31836 1175.0
6.3852 1121.0
6.45205 1078.0
6.51889 1103.0
6.58574 1079.0
6.65258 1098.0
6.71943 1026.0
6.78627 1004.0
6.85312 1043.0
6.91996 1013.0
6.98681 988.0
7.05365 953.0
7.1205 976.0
7.18734 1004.0
7.25419 930.0
7.32103 989.0
7.38788 1004.0
7.45472 987.0
7.52157 924.0
7.58841 908.0
7.65526 939.0
7.7221 915.0
7.78895 966.0
7.85579 979.0
7.92264 940.0
7.98948 947.0
8.05633 887.0
8.12317 922.0
8.19002 839.0
8.25686 893.0
8.32371 902.0
8.39055 882.0
8.4574 866.0
8.52424 844.0
8.59109 889.0
8.65793 794.0
8.72478 837.0
8.79162 935.0
8.85847 868.0
8.92532 882.0
8.99216 863.0
9.05901 898.0
9.12585 913.0
9.1927 894.0
9.25954 1007.0
9.32639 1198.0
9.39323 2000.0
9.46008 5352.0
9.52692 12524.0
9.59377 9085.0
9.66061 2094.0
9.72746 1200.0
9.7943 1011.0
9.86115 967.0
9.92799 927.0
9.99484 965.0
10.0617 906.0
10.1285 817.0
10.1954 866.0
10.2622 853.0
10.3291 787.0
10.3959 833.0
10.4628 806.0
10.5296 837.0
10.5964 795.0
10.6633 813.0
10.7301 781.0
10.797 860.0
10.8638 806.0
10.9307 833.0
10.9975 799.0
11.0644 798.0
11.1312 755.0
11.198 761.0
11.2649 817.0
11.3317 810.0
11.3986 738.0
11.4654 786.0
11.5323 772.0
11.5991 793.0
11.666 797.0
11.7328 779.0
11.7997 763.0
11.8665 786.0
11.9333 739.0
12.0002 713.0
12.067 709.0
12.1339 750.0
12.2007 807.0
12.2676 740.0
12.3344 750.0
12.4013 807.0
12.4681 750.0
12.5349 795.0
12.6018 741.0
12.6686 793.0
12.7355 768.0
12.8023 852.0
12.8692 1268.0
12.936 2721.0
13.0029 3373.0
13.0697 1538.0
13.1366 956.0
13.2034 840.0
13.2702 888.0
13.3371 867.0
13.4039 889.0
13.4708 906.0
13.5376 838.0
13.6045 766.0
13.6713 670.0
13.7382 632.0
13.805 647.0
13.8719 672.0
13.9387 742.0
14.0055 810.0
14.0724 778.0
14.1392 662.0
14.2061 662.0
14.2729 643.0
14.3398 674.0
14.4066 620.0
14.4735 642.0
14.5403 586.0
14.6071 680.0
14.674 641.0
14.7408 664.0
14.8077 663.0
14.8745 688.0
14.9414 674.0
15.0082 628.0
15.0751 643.0
15.1419 656.0
15.2088 659.0
15.2756 669.0
15.3424 610.0
15.4093 651.0
15.4761 665.0
15.543 633.0
15.6098 653.0
15.6767 665.0
15.7435 672.0
15.8104 693.0
15.8772 661.0
15.944 713.0
16.0109 882.0
16.0777 1691.0
16.1446 2879.0
16.2114 2020.0
16.2783 1040.0
16.3451 775.0
16.412 711.0
16.4788 748.0
16.5457 792.0
16.6125 807.0
16.6793 834.0
16.7462 873.0
16.813 853.0
16.8799 919.0
16.9467 997.0
17.0136 971.0
17.0804 995.0
17.1473 911.0
17.2141 912.0
17.2809 899.0
17.3478 931.0
17.4146 862.0
17.4815 849.0
17.5483 789.0
17.6152 855.0
17.682 920.0
17.7489 1064.0
17.8157 1330.0
17.8826 1303.0
17.9494 1035.0
18.0162 847.0
18.0831 784.0
18.1499 813.0
18.2168 753.0
18.2836 782.0
18.3505 734.0
18.4173 696.0
18.4842 746.0
18.551 727.0
18.6179 752.0
18.6847 673.0
18.7515 743.0
18.8184 683.0
18.8852 719.0
18.9521 746.0
19.0189 836.0
19.0858 1027.0
19.1526 1304.0
19.2195 1112.0
19.2863 868.0
19.3531 725.0
19.42 721.0
19.4868 762.0
19.5537 797.0
19.6205 801.0
19.6874 793.0
19.7542 772.0
19.8211 808.0
19.8879 807.0
19.9548 801.0
20.0216 844.0
20.0884 842.0
20.1553 925.0
20.2221 895.0
20.289 954.0
20.3558 997.0
20.4227 1021.0
20.4895 1006.0
20.5564 1066.0
20.6232 1272.0
20.69 2552.0
20.7569 4588.0
20.8237 3958.0
20.8906 2225.0
20.9574 1479.0
21.0243 1194.0
21.0911 1210.0
21.158 1278.0
21.2248 1258.0
21.2917 1323.0
21.3585 1345.0
21.4253 1366.0
21.4922 1310.0
21.559 1105.0
21.6259 1009.0
21.6927 883.0
21.7596 837.0
21.8264 795.0
21.8933 785.0
21.9601 819.0
22.0269 855.0
22.0938 904.0
22.1606 903.0
22.2275 871.0
22.2943 855.0
22.3612 802.0
22.428 838.0
22.4949 830.0
22.5617 839.0
22.6286 852.0
22.6954 895.0
22.7622 837.0
22.8291 850.0
22.8959 865.0
22.9628 939.0
23.0296 1035.0
23.0965 944.0
23.1633 1179.0
23.2302 1769.0
23.297 1604.0
23.3639 1151.0
23.4307 1027.0
23.4975 927.0
23.5644 887.0
23.6312 960.0
23.6981 997.0
23.7649 1041.0
23.8318 966.0
23.8986 920.0
23.9655 984.0
24.0323 981.0
24.0991 1045.0
24.166 1068.0
24.2328 1023.0
24.2997 1111.0
24.3665 1043.0
24.4334 1070.0
24.5002 1073.0
24.5671 1104.0
24.6339 1087.0
24.7008 1150.0
24.7676 1094.0
24.8344 1159.0
24.9013 1207.0
24.9681 1411.0
25.035 1709.0
25.1018 1581.0
25.1687 1411.0
25.2355 1220.0
25.3024 1204.0
25.3692 1099.0
25.436 1090.0
25.5029 1174.0
25.5697 1089.0
25.6366 1055.0
25.7034 1109.0
25.7703 1145.0
25.8371 1111.0
25.904 1123.0
25.9708 1214.0
26.0377 1568.0
26.1045 2129.0
26.1713 2353.0
26.2382 1864.0
26.305 1409.0
26.3719 1160.0
26.4387 1133.0
26.5056 1083.0
26.5724 1062.0
26.6393 1095.0
26.7061 1059.0
26.773 996.0
26.8398 989.0
26.9066 1006.0
26.9735 960.0
27.0403 1035.0
27.1072 994.0
27.174 985.0
27.2409 1004.0
27.3077 913.0
27.3746 1003.0
27.4414 981.0
27.5082 957.0
27.5751 912.0
27.6419 957.0
27.7088 956.0
27.7756 988.0
27.8425 1127.0
27.9093 1245.0
27.9762 1185.0
28.043 1057.0
28.1099 1022.0
28.1767 1095.0
28.2435 1256.0
28.3104 1237.0
28.3772 1192.0
28.4441 1138.0
28.5109 1031.0
28.5778 1039.0
28.6446 977.0
28.7115 942.0
28.7783 973.0
28.8451 959.0
28.912 886.0
28.9788 942.0
29.0457 962.0
29.1125 926.0
29.1794 897.0
29.2462 996.0
29.3131 978.0
29.3799 990.0
29.4468 969.0
29.5136 994.0
29.5804 964.0
29.6473 994.0
29.7141 1149.0
29.781 1273.0
29.8478 1166.0
29.9147 1132.0
29.9815 1127.0
30.0484 1151.0
30.1152 1144.0
30.182 1252.0
30.2489 1267.0
30.3157 1303.0
30.3826 1375.0
30.4494 1501.0
30.5163 1640.0
30.5831 1678.0
30.65 1675.0
30.7168 1894.0
30.7837 2038.0
30.8505 2504.0
30.9173 2964.0
30.9842 2866.0
31.051 2476.0
31.1179 2371.0
31.1847 2531.0
31.2516 2694.0
31.3184 2593.0
31.3853 2151.0
31.4521 1781.0
31.519 1544.0
31.5858 1326.0
31.6526 1301.0
31.7195 1253.0
31.7863 1225.0
31.8532 1276.0
31.92 1257.0
31.9869 1141.0
32.0537 1151.0
32.1206 1089.0
32.1874 1025.0
32.2542 1074.0
32.3211 993.0
32.3879 996.0
32.4548 924.0
32.5216 1009.0
32.5885 1021.0
32.6553 1049.0
32.7222 969.0
32.789 932.0
32.8559 883.0
32.9227 860.0
32.9895 824.0
33.0564 831.0
33.1232 823.0
33.1901 840.0
33.2569 813.0
33.3238 782.0
33.3906 806.0
33.4575 808.0
33.5243 750.0
33.5911 822.0
33.658 870.0
33.7248 863.0
33.7917 793.0
33.8585 791.0
33.9254 794.0
33.9922 774.0
34.0591 755.0
34.1259 728.0
34.1928 748.0
34.2596 800.0
34.3264 742.0
34.3933 722.0
34.4601 789.0
34.527 717.0
34.5938 742.0
34.6607 752.0
34.7275 727.0
34.7944 825.0
34.8612 869.0
34.928 864.0
34.9949 777.0
35.0617 738.0
35.1286 704.0
35.1954 783.0
35.2623 696.0
35.3291 751.0
35.396 736.0
35.4628 729.0
35.5297 650.0
35.5965 692.0
35.6633 633.0
35.7302 622.0
35.797 603.0
35.8639 651.0
35.9307 642.0
35.9976 605.0
36.0644 643.0
36.1313 650.0
36.1981 644.0
36.265 690.0
36.3318 664.0
36.3986 628.0
36.4655 603.0
36.5323 553.0
36.5992 565.0
36.666 588.0
36.7329 556.0
36.7997 501.0
36.8666 512.0
36.9334 521.0
37.0002 564.0
37.0671 536.0
37.1339 508.0
37.2008 517.0
37.2676 505.0
37.3345 504.0
37.4013 542.0
37.4682 494.0
37.535 497.0
37.6019 522.0
37.6687 503.0
37.7355 491.0
37.8024 533.0
37.8692 482.0
37.9361 491.0
38.0029 507.0
38.0698 480.0
38.1366 519.0
38.2035 518.0
38.2703 466.0
38.3371 462.0
38.404 534.0
38.4708 523.0
38.5377 522.0
38.6045 506.0
38.6714 501.0
38.7382 509.0
38.8051 491.0
38.8719 491.0
38.9388 544.0
39.0056 533.0
39.0724 496.0
39.1393 483.0
39.2061 551.0
39.273 549.0
39.3398 507.0
39.4067 545.0
39.4735 591.0
39.5404 531.0
39.6072 518.0
39.6741 531.0
39.7409 543.0
39.8077 507.0
39.8746 533.0
39.9414 503.0
40.0083 501.0
40.0751 559.0
40.142 563.0
40.2088 538.0
40.2757 521.0
40.3425 534.0
40.4093 517.0
40.4762 478.0
40.543 505.0
40.6099 490.0
40.6767 470.0
40.7436 460.0
40.8104 480.0
40.8773 508.0
40.9441 494.0
41.011 500.0
41.0778 495.0
41.1446 503.0
41.2115 505.0
41.2783 502.0
41.3452 528.0
41.412 502.0
41.4789 522.0
41.5457 506.0
41.6126 493.0
41.6794 503.0
41.7462 535.0
41.8131 463.0
41.8799 463.0
41.9468 519.0
42.0136 500.0
42.0805 505.0
42.1473 531.0
42.2142 494.0
42.281 514.0
42.3479 528.0
42.4147 472.0
42.4815 471.0
42.5484 466.0
42.6152 528.0
42.6821 494.0
42.7489 476.0
42.8158 450.0
42.8826 461.0
42.9495 520.0
43.0163 502.0
43.0831 543.0
43.15 533.0
43.2168 551.0
43.2837 534.0
43.3505 505.0
43.4174 566.0
43.4842 532.0
43.5511 506.0
43.6179 528.0
43.6848 511.0
43.7516 489.0
43.8184 512.0
43.8853 549.0
43.9521 519.0
44.019 551.0
44.0858 514.0
44.1527 491.0
44.2195 502.0
44.2864 490.0
44.3532 505.0
44.4201 476.0
44.4869 519.0
44.5537 513.0
44.6206 474.0
44.6874 511.0
44.7543 482.0
44.8211 448.0
44.888 454.0
44.9548 469.0
45.0217 494.0
45.0885 466.0
45.1553 462.0
45.2222 460.0
45.289 466.0
45.3559 465.0
45.4227 449.0
45.4896 435.0
45.5564 485.0
45.6233 503.0
45.6901 469.0
45.757 464.0
45.8238 454.0
45.8906 472.0
45.9575 442.0
46.0243 449.0
46.0912 434.0
46.158 417.0
46.2249 472.0
46.2917 425.0
46.3586 445.0
46.4254 445.0
46.4922 427.0
46.5591 404.0
46.6259 442.0
46.6928 435.0
46.7596 476.0
46.8265 494.0
46.8933 477.0
46.9602 462.0
47.027 430.0
47.0939 491.0
47.1607 469.0
47.2275 497.0
47.2944 449.0
47.3612 511.0
47.4281 486.0
47.4949 460.0
47.5618 457.0
47.6286 461.0
47.6955 483.0
47.7623 457.0
47.8291 464.0
47.896 462.0
47.9628 492.0
48.0297 506.0
48.0965 485.0
48.1634 514.0
48.2302 486.0
48.2971 495.0
48.3639 487.0
48.4308 477.0
48.4976 504.0
48.5644 471.0
48.6313 476.0
48.6981 491.0
48.765 462.0
48.8318 465.0
48.8987 491.0
48.9655 505.0
49.0324 513.0
49.0992 532.0
49.1661 605.0
49.2329 647.0
49.2997 741.0
49.3666 645.0
49.4334 701.0
49.5003 660.0
49.5671 553.0
49.634 544.0
49.7008 507.0
49.7677 494.0
49.8345 503.0
49.9013 491.0
49.9682 486.0
50.035 488.0
50.1019 477.0
50.1687 496.0
50.2356 520.0
50.3024 477.0
50.3693 475.0
50.4361 486.0
50.503 510.0
50.5698 476.0
50.6366 513.0
50.7035 539.0
50.7703 485.0
50.8372 492.0
50.904 483.0
50.9709 524.0
51.0377 571.0
51.1046 594.0
51.1714 580.0
51.2382 575.0
51.3051 605.0
51.3719 549.0
51.4388 529.0
51.5056 486.0
51.5725 498.0
51.6393 516.0
51.7062 502.0
51.773 466.0
51.8399 464.0
51.9067 500.0
51.9735 495.0
52.0404 453.0
52.1072 456.0
52.1741 426.0
52.2409 462.0
52.3078 486.0
52.3746 461.0
52.4415 423.0
52.5083 419.0
52.5751 479.0
52.642 506.0
52.7088 509.0
52.7757 464.0
52.8425 393.0
52.9094 436.0
52.9762 449.0
53.0431 435.0
53.1099 459.0
53.1768 467.0
53.2436 424.0
53.3104 402.0
53.3773 469.0
53.4441 454.0
53.511 482.0
53.5778 464.0
53.6447 489.0
53.7115 506.0
53.7784 497.0
53.8452 512.0
53.9121 509.0
53.9789 529.0
54.0457 440.0
54.1126 458.0
54.1794 466.0
54.2463 427.0
54.3131 461.0
54.38 449.0
54.4468 455.0
54.5137 466.0
54.5805 460.0
54.6473 477.0
54.7142 475.0
54.781 461.0
54.8479 441.0
54.9147 449.0
54.9816 472.0
55.0484 454.0
55.1153 443.0
55.1821 453.0
55.249 470.0
55.3158 408.0
55.3826 455.0
55.4495 465.0
55.5163 456.0
55.5832 498.0
55.65 469.0
55.7169 509.0
55.7837 449.0
55.8506 471.0
55.9174 467.0
55.9842 453.0
56.0511 477.0
56.1179 458.0
56.1848 430.0
56.2516 423.0
56.3185 460.0
56.3853 479.0
56.4522 469.0
56.519 494.0
56.5859 485.0
56.6527 528.0
56.7195 465.0
56.7864 473.0
56.8532 520.0
56.9201 460.0
56.9869 460.0
57.0538 491.0
57.1206 412.0
57.1875 456.0
57.2543 465.0
57.3212 433.0
57.388 433.0
57.4548 471.0
57.5217 416.0
57.5885 443.0
57.6554 406.0
57.7222 420.0
57.7891 450.0
57.8559 397.0
57.9228 391.0
57.9896 412.0
58.0564 416.0
58.1233 416.0
58.1901 429.0
58.257 399.0
58.3238 383.0
58.3907 439.0
58.4575 406.0
58.5244 381.0
58.5912 420.0
58.6581 411.0
58.7249 410.0
58.7917 413.0
58.8586 430.0
58.9254 433.0
58.9923 419.0
59.0591 406.0
59.126 372.0
59.1928 398.0
59.2597 428.0
59.3265 386.0
59.3933 400.0
59.4602 432.0
59.527 411.0
59.5939 399.0
59.6607 366.0
59.7276 403.0
59.7944 408.0
59.8613 439.0
59.9281 448.0
59.995 474.0
60.0618 444.0
60.1286 443.0
60.1955 448.0
60.2623 470.0
60.3292 403.0
60.396 396.0
60.4629 367.0
60.5297 427.0
60.5966 431.0
60.6634 376.0
60.7302 416.0
60.7971 398.0
60.8639 417.0
60.9308 393.0
60.9976 385.0
61.0645 401.0
61.1313 462.0
61.1982 350.0
61.265 425.0
61.3319 399.0
61.3987 394.0
61.4655 373.0
61.5324 353.0
61.5992 418.0
61.6661 436.0
61.7329 444.0
61.7998 416.0
61.8666 418.0
61.9335 439.0
62.0003 431.0
62.0672 469.0
62.134 420.0
62.2008 448.0
62.2677 435.0
62.3345 394.0
62.4014 417.0
62.4682 420.0
62.5351 383.0
62.6019 394.0
62.6688 420.0
62.7356 365.0
62.8024 412.0
62.8693 431.0
62.9361 379.0
63.003 381.0
63.0698 387.0
63.1367 403.0
63.2035 369.0
63.2704 430.0
63.3372 441.0
63.4041 404.0
63.4709 364.0
63.5377 411.0
63.6046 403.0
63.6714 399.0
63.7383 409.0
63.8051 381.0
63.872 419.0
63.9388 408.0
64.0057 356.0
64.0725 398.0
64.1393 407.0
64.2062 368.0
64.273 370.0
64.3399 381.0
64.4067 396.0
64.4736 377.0
64.5404 371.0
64.6073 384.0
64.6741 368.0
64.741 406.0
64.8078 375.0
64.8746 373.0
64.9415 345.0
65.0083 386.0
65.0752 411.0
65.142 397.0
65.2089 384.0
65.2757 389.0
65.3426 373.0
65.4094 380.0
65.4762 422.0
65.5431 398.0
65.6099 371.0
65.6768 348.0
65.7436 345.0
65.8105 380.0
65.8773 395.0
65.9442 369.0
66.011 411.0
66.0779 395.0
66.1447 389.0
66.2115 429.0
66.2784 355.0
66.3452 391.0
66.4121 400.0
66.4789 406.0
66.5458 369.0
66.6126 401.0
66.6795 399.0
66.7463 417.0
66.8132 472.0
66.88 402.0
66.9468 443.0
67.0137 466.0
67.0805 440.0
67.1474 446.0
67.2142 424.0
67.2811 444.0
67.3479 413.0
67.4148 403.0
67.4816 427.0
67.5484 399.0
67.6153 417.0
67.6821 379.0
67.749 372.0
67.8158 385.0
67.8827 435.0
67.9495 348.0
68.0164 397.0
68.0832 382.0
68.1501 384.0
68.2169 388.0
68.2837 364.0
68.3506 378.0
68.4174 420.0
68.4843 388.0
68.5511 389.0
68.618 382.0
68.6848 384.0
68.7517 402.0
68.8185 370.0
68.8853 383.0
68.9522 386.0
69.019 344.0
69.0859 410.0
69.1527 402.0
69.2196 371.0
69.2864 370.0
69.3533 386.0
69.4201 337.0
69.487 352.0
69.5538 385.0
69.6206 387.0
69.6875 362.0
69.7543 358.0
69.8212 369.0
69.888 375.0
69.9549 398.0
70.0217 361.0
70.0886 342.0
70.1554 373.0
70.2222 371.0
70.2891 378.0
70.3559 373.0
70.4228 376.0
70.4896 382.0
70.5565 394.0
70.6233 384.0
70.6902 354.0
70.757 396.0
70.8239 369.0
70.8907 389.0
70.9575 379.0
71.0244 377.0
71.0912 415.0
71.1581 396.0
71.2249 371.0
71.2918 366.0
71.3586 408.0
71.4255 370.0
71.4923 400.0
71.5592 354.0
71.626 386.0
71.6928 375.0
71.7597 356.0
71.8265 364.0
71.8934 371.0
71.9602 344.0
72.0271 346.0
72.0939 367.0
72.1608 382.0
72.2276 369.0
72.2944 367.0
72.3613 391.0
72.4281 333.0
72.495 332.0
72.5618 372.0
72.6287 340.0
72.6955 360.0
72.7624 362.0
72.8292 385.0
72.8961 363.0
72.9629 364.0
73.0297 332.0
73.0966 380.0
73.1634 316.0
73.2303 347.0
73.2971 376.0
73.364 361.0
73.4308 332.0
73.4977 355.0
73.5645 341.0
73.6313 352.0
73.6982 361.0
73.765 331.0
73.8319 349.0
73.8987 336.0
73.9656 338.0
74.0324 342.0
74.0993 354.0
74.1661 309.0
74.233 325.0
74.2998 354.0
74.3666 334.0
74.4335 304.0
74.5003 321.0
74.5672 326.0
74.634 328.0
74.7009 332.0
74.7677 339.0
74.8346 382.0
74.9014 321.0
74.9683 344.0
75.0351 328.0
75.1019 328.0
75.1688 316.0
75.2356 328.0
75.3025 355.0
75.3693 309.0
75.4362 355.0
75.503 336.0
75.5699 336.0
75.6367 340.0
75.7035 334.0
75.7704 318.0
75.8372 326.0
75.9041 341.0
75.9709 363.0
76.0378 314.0
76.1046 315.0
76.1715 339.0
76.2383 309.0
76.3052 306.0
76.372 302.0
76.4388 334.0
76.5057 293.0
76.5725 305.0
76.6394 292.0
76.7062 273.0
76.7731 304.0
76.8399 305.0
76.9068 304.0
76.9736 307.0
77.0404 326.0
77.1073 310.0
77.1741 291.0
77.241 278.0
77.3078 300.0
77.3747 293.0
77.4415 280.0
77.5084 339.0
77.5752 287.0
77.6421 332.0
77.7089 285.0
77.7757 300.0
77.8426 302.0
77.9094 302.0
77.9763 299.0
78.0431 306.0
78.11 292.0
78.1768 273.0
78.2437 273.0
78.3105 285.0
78.3773 280.0
78.4442 317.0
78.511 321.0
78.5779 295.0
78.6447 291.0
78.7116 285.0
78.7784 268.0
78.8453 278.0
78.9121 321.0
78.979 276.0
79.0458 275.0
79.1126 309.0
79.1795 260.0
79.2463 268.0
79.3132 298.0
79.38 297.0
79.4469 294.0
79.5137 286.0
79.5806 300.0
79.6474 259.0
79.7143 270.0
79.7811 266.0
79.8479 251.0
79.9148 263.0
79.9816 267.0
80.0485 287.0
80.1153 261.0
80.1822 280.0
80.249 250.0
80.3159 287.0
80.3827 275.0
80.4495 275.0
80.5164 259.0
80.5832 274.0
80.6501 277.0
80.7169 259.0
80.7838 290.0
80.8506 286.0
80.9175 262.0
80.9843 300.0
81.0512 279.0
81.118 298.0
81.1848 256.0
81.2517 276.0
81.3185 280.0
81.3854 254.0
81.4522 257.0
81.5191 229.0
81.5859 264.0
81.6528 244.0
81.7196 253.0
81.7864 206.0
81.8533 247.0
81.9201 252.0
81.987 251.0
82.0538 237.0
82.1207 254.0
82.1875 259.0
82.2544 262.0
82.3212 240.0
82.3881 255.0
82.4549 246.0
82.5217 261.0
82.5886 239.0
82.6554 220.0
82.7223 229.0
82.7891 232.0
82.856 239.0
82.9228 228.0
82.9897 246.0
83.0565 261.0
83.1233 247.0
83.1902 198.0
83.257 246.0
83.3239 228.0
83.3907 230.0
83.4576 236.0
83.5244 225.0
83.5913 259.0
83.6581 252.0
83.725 243.0
83.7918 248.0
83.8586 247.0
83.9255 247.0
83.9923 251.0
84.0592 222.0
84.126 233.0
84.1929 201.0
84.2597 207.0
84.3266 239.0
84.3934 242.0
84.4603 226.0
84.5271 210.0
84.5939 256.0
84.6608 220.0
84.7276 239.0
84.7945 232.0
84.8613 232.0
84.9282 216.0
84.995 220.0
85.0619 215.0
85.1287 205.0
85.1955 230.0
85.2624 217.0
85.3292 219.0
85.3961 226.0
85.4629 224.0
85.5298 236.0
85.5966 215.0
85.6635 221.0
85.7303 211.0
85.7972 198.0
85.864 215.0
85.9308 231.0
85.9977 222.0
86.0645 223.0
86.1314 197.0
86.1982 230.0
86.2651 214.0
86.3319 222.0
86.3988 199.0
86.4656 185.0
86.5324 239.0
86.5993 196.0
86.6661 196.0
86.733 190.0
86.7998 210.0
86.8667 210.0
86.9335 214.0
87.0004 216.0
87.0672 201.0
87.1341 239.0
87.2009 223.0
87.2677 211.0
87.3346 197.0
87.4014 205.0
87.4683 205.0
87.5351 226.0
87.602 198.0
87.6688 191.0
87.7357 210.0
87.8025 240.0
87.8693 213.0
87.9362 201.0
88.003 230.0
88.0699 201.0
88.1367 220.0
88.2036 203.0
88.2704 181.0
88.3373 207.0
88.4041 177.0
88.471 215.0
88.5378 215.0
88.6046 192.0
88.6715 180.0
88.7383 192.0
88.8052 204.0
88.872 199.0
88.9389 221.0
89.0057 176.0
89.0726 200.0
89.1394 229.0
89.2063 174.0
89.2731 221.0
89.3399 177.0
89.4068 184.0
89.4736 194.0
89.5405 201.0
89.6073 213.0
89.6742 180.0
89.741 209.0
89.8079 214.0
89.8747 197.0
89.9415 201.0