File: code/XRD_Analysis/External Sources/Alex_SAPO/20220623_SAPO34_70_220608_calc650C20h.xy
4.98146 1533.0
5.0483 1446.0
5.11515 1507.0
5.18199 1424.0
5.24884 1501.0
5.31568 1415.0
5.38253 1344.0
5.44937 1332.0
5.51622 1335.0
5.58306 1270.0
5.64991 1305.0
5.71675 1246.0
5.7836 1266.0
5.85044 1198.0
5.91729 1266.0
5.98413 1175.0
6.05098 1193.0
6.11782 1160.0
6.18467 1164.0
6.25151 1147.0
6.31836 1150.0
6.3852 1176.0
6.45205 1091.0
6.51889 1168.0
6.58574 1088.0
6.65258 1059.0
6.71943 1059.0
6.78627 1065.0
6.85312 1053.0
6.91996 1050.0
6.98681 1067.0
7.05365 1071.0
7.1205 998.0
7.18734 1036.0
7.25419 987.0
7.32103 1045.0
7.38788 976.0
7.45472 969.0
7.52157 1035.0
7.58841 934.0
7.65526 910.0
7.7221 955.0
7.78895 925.0
7.85579 884.0
7.92264 960.0
7.98948 853.0
8.05633 925.0
8.12317 915.0
8.19002 842.0
8.25686 892.0
8.32371 879.0
8.39055 880.0
8.4574 880.0
8.52424 929.0
8.59109 889.0
8.65793 868.0
8.72478 910.0
8.79162 861.0
8.85847 888.0
8.92532 803.0
8.99216 950.0
9.05901 833.0
9.12585 900.0
9.1927 989.0
9.25954 1003.0
9.32639 1229.0
9.39323 2243.0
9.46008 5079.0
9.52692 10527.0
9.59377 8372.0
9.66061 1767.0
9.72746 1112.0
9.7943 1026.0
9.86115 937.0
9.92799 949.0
9.99484 891.0
10.0617 899.0
10.1285 878.0
10.1954 875.0
10.2622 837.0
10.3291 854.0
10.3959 814.0
10.4628 842.0
10.5296 810.0
10.5964 770.0
10.6633 730.0
10.7301 726.0
10.797 700.0
10.8638 826.0
10.9307 770.0
10.9975 816.0
11.0644 770.0
11.1312 813.0
11.198 715.0
11.2649 766.0
11.3317 763.0
11.3986 729.0
11.4654 758.0
11.5323 768.0
11.5991 766.0
11.666 743.0
11.7328 747.0
11.7997 701.0
11.8665 754.0
11.9333 794.0
12.0002 722.0
12.067 755.0
12.1339 719.0
12.2007 745.0
12.2676 781.0
12.3344 750.0
12.4013 737.0
12.4681 757.0
12.5349 791.0
12.6018 769.0
12.6686 804.0
12.7355 847.0
12.8023 938.0
12.8692 1535.0
12.936 2601.0
13.0029 2851.0
13.0697 1289.0
13.1366 913.0
13.2034 873.0
13.2702 895.0
13.3371 923.0
13.4039 880.0
13.4708 908.0
13.5376 844.0
13.6045 728.0
13.6713 599.0
13.7382 626.0
13.805 642.0
13.8719 622.0
13.9387 725.0
14.0055 793.0
14.0724 761.0
14.1392 635.0
14.2061 612.0
14.2729 639.0
14.3398 691.0
14.4066 642.0
14.4735 648.0
14.5403 647.0
14.6071 635.0
14.674 653.0
14.7408 645.0
14.8077 677.0
14.8745 642.0
14.9414 695.0
15.0082 647.0
15.0751 645.0
15.1419 660.0
15.2088 684.0
15.2756 615.0
15.3424 631.0
15.4093 660.0
15.4761 649.0
15.543 672.0
15.6098 647.0
15.6767 629.0
15.7435 676.0
15.8104 680.0
15.8772 666.0
15.944 770.0
16.0109 1098.0
16.0777 1841.0
16.1446 2432.0
16.2114 1650.0
16.2783 871.0
16.3451 802.0
16.412 785.0
16.4788 736.0
16.5457 790.0
16.6125 822.0
16.6793 838.0
16.7462 852.0
16.813 940.0
16.8799 933.0
16.9467 1005.0
17.0136 1019.0
17.0804 958.0
17.1473 1047.0
17.2141 976.0
17.2809 920.0
17.3478 929.0
17.4146 917.0
17.4815 943.0
17.5483 881.0
17.6152 935.0
17.682 944.0
17.7489 1018.0
17.8157 1241.0
17.8826 1066.0
17.9494 938.0
18.0162 833.0
18.0831 830.0
18.1499 822.0
18.2168 781.0
18.2836 790.0
18.3505 763.0
18.4173 737.0
18.4842 778.0
18.551 828.0
18.6179 767.0
18.6847 688.0
18.7515 841.0
18.8184 791.0
18.8852 800.0
18.9521 778.0
19.0189 944.0
19.0858 1196.0
19.1526 1314.0
19.2195 1122.0
19.2863 954.0
19.3531 805.0
19.42 782.0
19.4868 732.0
19.5537 822.0
19.6205 832.0
19.6874 812.0
19.7542 828.0
19.8211 840.0
19.8879 922.0
19.9548 828.0
20.0216 909.0
20.0884 928.0
20.1553 904.0
20.2221 1004.0
20.289 984.0
20.3558 1029.0
20.4227 1055.0
20.4895 1053.0
20.5564 1275.0
20.6232 1797.0
20.69 2916.0
20.7569 4141.0
20.8237 3226.0
20.8906 1881.0
20.9574 1394.0
21.0243 1355.0
21.0911 1267.0
21.158 1286.0
21.2248 1268.0
21.2917 1339.0
21.3585 1229.0
21.4253 1275.0
21.4922 1191.0
21.559 1037.0
21.6259 934.0
21.6927 894.0
21.7596 934.0
21.8264 799.0
21.8933 895.0
21.9601 888.0
22.0269 972.0
22.0938 908.0
22.1606 973.0
22.2275 917.0
22.2943 913.0
22.3612 897.0
22.428 842.0
22.4949 973.0
22.5617 938.0
22.6286 977.0
22.6954 954.0
22.7622 893.0
22.8291 980.0
22.8959 1005.0
22.9628 1034.0
23.0296 1050.0
23.0965 1098.0
23.1633 1373.0
23.2302 1758.0
23.297 1554.0
23.3639 1268.0
23.4307 1057.0
23.4975 1115.0
23.5644 1045.0
23.6312 1085.0
23.6981 1089.0
23.7649 1082.0
23.8318 1148.0
23.8986 1148.0
23.9655 1215.0
24.0323 1209.0
24.0991 1252.0
24.166 1204.0
24.2328 1235.0
24.2997 1215.0
24.3665 1218.0
24.4334 1310.0
24.5002 1235.0
24.5671 1238.0
24.6339 1262.0
24.7008 1326.0
24.7676 1307.0
24.8344 1397.0
24.9013 1432.0
24.9681 1581.0
25.035 1727.0
25.1018 1602.0
25.1687 1450.0
25.2355 1384.0
25.3024 1321.0
25.3692 1329.0
25.436 1343.0
25.5029 1291.0
25.5697 1347.0
25.6366 1377.0
25.7034 1345.0
25.7703 1283.0
25.8371 1325.0
25.904 1378.0
25.9708 1548.0
26.0377 2071.0
26.1045 2434.0
26.1713 2347.0
26.2382 1867.0
26.305 1439.0
26.3719 1383.0
26.4387 1345.0
26.5056 1238.0
26.5724 1235.0
26.6393 1228.0
26.7061 1254.0
26.773 1247.0
26.8398 1110.0
26.9066 1216.0
26.9735 1245.0
27.0403 1151.0
27.1072 1126.0
27.174 1198.0
27.2409 1106.0
27.3077 1176.0
27.3746 1165.0
27.4414 1100.0
27.5082 1104.0
27.5751 1142.0
27.6419 1150.0
27.7088 1192.0
27.7756 1272.0
27.8425 1419.0
27.9093 1354.0
27.9762 1324.0
28.043 1259.0
28.1099 1330.0
28.1767 1320.0
28.2435 1409.0
28.3104 1499.0
28.3772 1394.0
28.4441 1266.0
28.5109 1228.0
28.5778 1138.0
28.6446 1193.0
28.7115 1191.0
28.7783 1163.0
28.8451 1180.0
28.912 1129.0
28.9788 1231.0
29.0457 1170.0
29.1125 1277.0
29.1794 1209.0
29.2462 1165.0
29.3131 1167.0
29.3799 1235.0
29.4468 1188.0
29.5136 1207.0
29.5804 1242.0
29.6473 1301.0
29.7141 1433.0
29.781 1464.0
29.8478 1468.0
29.9147 1362.0
29.9815 1390.0
30.0484 1392.0
30.1152 1503.0
30.182 1532.0
30.2489 1574.0
30.3157 1582.0
30.3826 1638.0
30.4494 1765.0
30.5163 1962.0
30.5831 2021.0
30.65 2226.0
30.7168 2328.0
30.7837 2631.0
30.8505 3043.0
30.9173 3160.0
30.9842 3056.0
31.051 2892.0
31.1179 2846.0
31.1847 3069.0
31.2516 3028.0
31.3184 2786.0
31.3853 2379.0
31.4521 2087.0
31.519 1750.0
31.5858 1529.0
31.6526 1533.0
31.7195 1510.0
31.7863 1490.0
31.8532 1441.0
31.92 1531.0
31.9869 1387.0
32.0537 1357.0
32.1206 1287.0
32.1874 1300.0
32.2542 1257.0
32.3211 1159.0
32.3879 1208.0
32.4548 1309.0
32.5216 1216.0
32.5885 1232.0
32.6553 1257.0
32.7222 1129.0
32.789 1109.0
32.8559 1068.0
32.9227 1051.0
32.9895 1024.0
33.0564 1017.0
33.1232 991.0
33.1901 1003.0
33.2569 1059.0
33.3238 1001.0
33.3906 980.0
33.4575 1007.0
33.5243 996.0
33.5911 1085.0
33.658 1089.0
33.7248 1090.0
33.7917 995.0
33.8585 1031.0
33.9254 977.0
33.9922 920.0
34.0591 969.0
34.1259 948.0
34.1928 971.0
34.2596 875.0
34.3264 912.0
34.3933 847.0
34.4601 943.0
34.527 949.0
34.5938 943.0
34.6607 883.0
34.7275 1007.0
34.7944 1043.0
34.8612 954.0
34.928 1052.0
34.9949 950.0
35.0617 902.0
35.1286 870.0
35.1954 854.0
35.2623 846.0
35.3291 844.0
35.396 797.0
35.4628 794.0
35.5297 790.0
35.5965 851.0
35.6633 807.0
35.7302 772.0
35.797 829.0
35.8639 784.0
35.9307 794.0
35.9976 787.0
36.0644 840.0
36.1313 918.0
36.1981 848.0
36.265 861.0
36.3318 835.0
36.3986 762.0
36.4655 781.0
36.5323 714.0
36.5992 684.0
36.666 685.0
36.7329 725.0
36.7997 676.0
36.8666 690.0
36.9334 625.0
37.0002 690.0
37.0671 663.0
37.1339 657.0
37.2008 667.0
37.2676 685.0
37.3345 669.0
37.4013 676.0
37.4682 631.0
37.535 665.0
37.6019 649.0
37.6687 653.0
37.7355 625.0
37.8024 629.0
37.8692 649.0
37.9361 571.0
38.0029 643.0
38.0698 644.0
38.1366 657.0
38.2035 656.0
38.2703 615.0
38.3371 699.0
38.404 644.0
38.4708 556.0
38.5377 619.0
38.6045 594.0
38.6714 609.0
38.7382 668.0
38.8051 604.0
38.8719 610.0
38.9388 663.0
39.0056 681.0
39.0724 657.0
39.1393 683.0
39.2061 700.0
39.273 699.0
39.3398 685.0
39.4067 696.0
39.4735 681.0
39.5404 620.0
39.6072 720.0
39.6741 722.0
39.7409 695.0
39.8077 725.0
39.8746 652.0
39.9414 688.0
40.0083 691.0
40.0751 682.0
40.142 646.0
40.2088 647.0
40.2757 674.0
40.3425 653.0
40.4093 542.0
40.4762 651.0
40.543 620.0
40.6099 605.0
40.6767 634.0
40.7436 620.0
40.8104 653.0
40.8773 674.0
40.9441 664.0
41.011 604.0
41.0778 669.0
41.1446 661.0
41.2115 666.0
41.2783 618.0
41.3452 641.0
41.412 646.0
41.4789 611.0
41.5457 641.0
41.6126 653.0
41.6794 638.0
41.7462 619.0
41.8131 626.0
41.8799 600.0
41.9468 633.0
42.0136 715.0
42.0805 642.0
42.1473 599.0
42.2142 692.0
42.281 694.0
42.3479 639.0
42.4147 674.0
42.4815 698.0
42.5484 632.0
42.6152 649.0
42.6821 664.0
42.7489 659.0
42.8158 646.0
42.8826 609.0
42.9495 638.0
43.0163 653.0
43.0831 652.0
43.15 654.0
43.2168 673.0
43.2837 680.0
43.3505 683.0
43.4174 704.0
43.4842 740.0
43.5511 657.0
43.6179 680.0
43.6848 691.0
43.7516 660.0
43.8184 667.0
43.8853 682.0
43.9521 680.0
44.019 662.0
44.0858 633.0
44.1527 595.0
44.2195 647.0
44.2864 647.0
44.3532 653.0
44.4201 647.0
44.4869 644.0
44.5537 663.0
44.6206 650.0
44.6874 645.0
44.7543 631.0
44.8211 679.0
44.888 611.0
44.9548 689.0
45.0217 636.0
45.0885 642.0
45.1553 641.0
45.2222 586.0
45.289 631.0
45.3559 641.0
45.4227 638.0
45.4896 639.0
45.5564 619.0
45.6233 641.0
45.6901 591.0
45.757 627.0
45.8238 656.0
45.8906 615.0
45.9575 598.0
46.0243 572.0
46.0912 594.0
46.158 631.0
46.2249 637.0
46.2917 617.0
46.3586 573.0
46.4254 664.0
46.4922 589.0
46.5591 630.0
46.6259 617.0
46.6928 606.0
46.7596 621.0
46.8265 582.0
46.8933 578.0
46.9602 631.0
47.027 616.0
47.0939 610.0
47.1607 609.0
47.2275 626.0
47.2944 603.0
47.3612 634.0
47.4281 653.0
47.4949 646.0
47.5618 638.0
47.6286 665.0
47.6955 600.0
47.7623 578.0
47.8291 588.0
47.896 584.0
47.9628 622.0
48.0297 668.0
48.0965 626.0
48.1634 623.0
48.2302 614.0
48.2971 643.0
48.3639 610.0
48.4308 647.0
48.4976 620.0
48.5644 631.0
48.6313 636.0
48.6981 602.0
48.765 632.0
48.8318 629.0
48.8987 673.0
48.9655 656.0
49.0324 721.0
49.0992 766.0
49.1661 783.0
49.2329 891.0
49.2997 860.0
49.3666 887.0
49.4334 732.0
49.5003 688.0
49.5671 681.0
49.634 622.0
49.7008 689.0
49.7677 689.0
49.8345 676.0
49.9013 656.0
49.9682 661.0
50.035 681.0
50.1019 680.0
50.1687 633.0
50.2356 643.0
50.3024 621.0
50.3693 670.0
50.4361 697.0
50.503 662.0
50.5698 666.0
50.6366 705.0
50.7035 714.0
50.7703 711.0
50.8372 698.0
50.904 694.0
50.9709 700.0
51.0377 707.0
51.1046 704.0
51.1714 747.0
51.2382 725.0
51.3051 665.0
51.3719 719.0
51.4388 597.0
51.5056 627.0
51.5725 706.0
51.6393 580.0
51.7062 625.0
51.773 604.0
51.8399 642.0
51.9067 604.0
51.9735 643.0
52.0404 643.0
52.1072 616.0
52.1741 650.0
52.2409 621.0
52.3078 597.0
52.3746 659.0
52.4415 582.0
52.5083 603.0
52.5751 586.0
52.642 622.0
52.7088 620.0
52.7757 627.0
52.8425 550.0
52.9094 609.0
52.9762 603.0
53.0431 592.0
53.1099 616.0
53.1768 582.0
53.2436 569.0
53.3104 648.0
53.3773 588.0
53.4441 596.0
53.511 607.0
53.5778 631.0
53.6447 656.0
53.7115 693.0
53.7784 696.0
53.8452 638.0
53.9121 692.0
53.9789 654.0
54.0457 612.0
54.1126 617.0
54.1794 581.0
54.2463 571.0
54.3131 527.0
54.38 588.0
54.4468 585.0
54.5137 639.0
54.5805 615.0
54.6473 605.0
54.7142 653.0
54.781 637.0
54.8479 617.0
54.9147 605.0
54.9816 605.0
55.0484 630.0
55.1153 618.0
55.1821 558.0
55.249 615.0
55.3158 611.0
55.3826 628.0
55.4495 550.0
55.5163 607.0
55.5832 645.0
55.65 604.0
55.7169 601.0
55.7837 681.0
55.8506 585.0
55.9174 607.0
55.9842 607.0
56.0511 629.0
56.1179 609.0
56.1848 610.0
56.2516 629.0
56.3185 644.0
56.3853 634.0
56.4522 617.0
56.519 609.0
56.5859 669.0
56.6527 626.0
56.7195 663.0
56.7864 622.0
56.8532 636.0
56.9201 618.0
56.9869 565.0
57.0538 623.0
57.1206 610.0
57.1875 545.0
57.2543 556.0
57.3212 559.0
57.388 606.0
57.4548 590.0
57.5217 569.0
57.5885 558.0
57.6554 603.0
57.7222 558.0
57.7891 585.0
57.8559 518.0
57.9228 585.0
57.9896 543.0
58.0564 576.0
58.1233 527.0
58.1901 543.0
58.257 556.0
58.3238 508.0
58.3907 521.0
58.4575 509.0
58.5244 538.0
58.5912 578.0
58.6581 537.0
58.7249 542.0
58.7917 513.0
58.8586 559.0
58.9254 557.0
58.9923 549.0
59.0591 522.0
59.126 523.0
59.1928 582.0
59.2597 516.0
59.3265 521.0
59.3933 540.0
59.4602 558.0
59.527 531.0
59.5939 572.0
59.6607 544.0
59.7276 591.0
59.7944 532.0
59.8613 609.0
59.9281 561.0
59.995 628.0
60.0618 606.0
60.1286 549.0
60.1955 586.0
60.2623 560.0
60.3292 574.0
60.396 581.0
60.4629 502.0
60.5297 554.0
60.5966 526.0
60.6634 536.0
60.7302 566.0
60.7971 573.0
60.8639 567.0
60.9308 542.0
60.9976 543.0
61.0645 553.0
61.1313 524.0
61.1982 529.0
61.265 578.0
61.3319 512.0
61.3987 552.0
61.4655 557.0
61.5324 574.0
61.5992 597.0
61.6661 586.0
61.7329 583.0
61.7998 612.0
61.8666 590.0
61.9335 619.0
62.0003 519.0
62.0672 573.0
62.134 566.0
62.2008 571.0
62.2677 553.0
62.3345 514.0
62.4014 523.0
62.4682 555.0
62.5351 518.0
62.6019 536.0
62.6688 573.0
62.7356 522.0
62.8024 558.0
62.8693 507.0
62.9361 556.0
63.003 522.0
63.0698 551.0
63.1367 536.0
63.2035 536.0
63.2704 541.0
63.3372 571.0
63.4041 526.0
63.4709 527.0
63.5377 550.0
63.6046 543.0
63.6714 520.0
63.7383 508.0
63.8051 519.0
63.872 511.0
63.9388 531.0
64.0057 497.0
64.0725 551.0
64.1393 547.0
64.2062 512.0
64.273 521.0
64.3399 492.0
64.4067 548.0
64.4736 564.0
64.5404 540.0
64.6073 552.0
64.6741 541.0
64.741 548.0
64.8078 548.0
64.8746 554.0
64.9415 519.0
65.0083 548.0
65.0752 567.0
65.142 531.0
65.2089 567.0
65.2757 532.0
65.3426 523.0
65.4094 583.0
65.4762 561.0
65.5431 522.0
65.6099 532.0
65.6768 566.0
65.7436 523.0
65.8105 536.0
65.8773 509.0
65.9442 521.0
66.011 517.0
66.0779 552.0
66.1447 568.0
66.2115 487.0
66.2784 615.0
66.3452 565.0
66.4121 545.0
66.4789 538.0
66.5458 576.0
66.6126 559.0
66.6795 594.0
66.7463 583.0
66.8132 600.0
66.88 587.0
66.9468 589.0
67.0137 599.0
67.0805 615.0
67.1474 579.0
67.2142 592.0
67.2811 578.0
67.3479 565.0
67.4148 566.0
67.4816 564.0
67.5484 597.0
67.6153 573.0
67.6821 563.0
67.749 510.0
67.8158 569.0
67.8827 539.0
67.9495 481.0
68.0164 567.0
68.0832 532.0
68.1501 492.0
68.2169 535.0
68.2837 522.0
68.3506 527.0
68.4174 514.0
68.4843 571.0
68.5511 531.0
68.618 510.0
68.6848 518.0
68.7517 522.0
68.8185 523.0
68.8853 481.0
68.9522 496.0
69.019 512.0
69.0859 517.0
69.1527 474.0
69.2196 503.0
69.2864 485.0
69.3533 533.0
69.4201 479.0
69.487 507.0
69.5538 551.0
69.6206 431.0
69.6875 477.0
69.7543 533.0
69.8212 511.0
69.888 465.0
69.9549 532.0
70.0217 509.0
70.0886 522.0
70.1554 501.0
70.2222 543.0
70.2891 508.0
70.3559 505.0
70.4228 522.0
70.4896 525.0
70.5565 510.0
70.6233 578.0
70.6902 569.0
70.757 534.0
70.8239 533.0
70.8907 495.0
70.9575 504.0
71.0244 504.0
71.0912 491.0
71.1581 487.0
71.2249 478.0
71.2918 502.0
71.3586 534.0
71.4255 501.0
71.4923 488.0
71.5592 481.0
71.626 449.0
71.6928 505.0
71.7597 486.0
71.8265 502.0
71.8934 489.0
71.9602 490.0
72.0271 467.0
72.0939 447.0
72.1608 535.0
72.2276 457.0
72.2944 532.0
72.3613 474.0
72.4281 503.0
72.495 473.0
72.5618 485.0
72.6287 446.0
72.6955 451.0
72.7624 427.0
72.8292 470.0
72.8961 478.0
72.9629 478.0
73.0297 474.0
73.0966 465.0
73.1634 473.0
73.2303 448.0
73.2971 415.0
73.364 443.0
73.4308 493.0
73.4977 495.0
73.5645 430.0
73.6313 380.0
73.6982 467.0
73.765 451.0
73.8319 463.0
73.8987 491.0
73.9656 450.0
74.0324 440.0
74.0993 431.0
74.1661 443.0
74.233 472.0
74.2998 451.0
74.3666 447.0
74.4335 442.0
74.5003 466.0
74.5672 445.0
74.634 470.0
74.7009 456.0
74.7677 434.0
74.8346 454.0
74.9014 453.0
74.9683 460.0
75.0351 455.0
75.1019 426.0
75.1688 467.0
75.2356 453.0
75.3025 475.0
75.3693 470.0
75.4362 460.0
75.503 457.0
75.5699 415.0
75.6367 487.0
75.7035 441.0
75.7704 478.0
75.8372 460.0
75.9041 464.0
75.9709 441.0
76.0378 463.0
76.1046 427.0
76.1715 482.0
76.2383 509.0
76.3052 455.0
76.372 458.0
76.4388 432.0
76.5057 429.0
76.5725 434.0
76.6394 416.0
76.7062 434.0
76.7731 396.0
76.8399 440.0
76.9068 398.0
76.9736 425.0
77.0404 414.0
77.1073 396.0
77.1741 404.0
77.241 427.0
77.3078 441.0
77.3747 419.0
77.4415 413.0
77.5084 423.0
77.5752 411.0
77.6421 473.0
77.7089 438.0
77.7757 406.0
77.8426 385.0
77.9094 426.0
77.9763 424.0
78.0431 383.0
78.11 375.0
78.1768 416.0
78.2437 429.0
78.3105 404.0
78.3773 407.0
78.4442 408.0
78.511 411.0
78.5779 445.0
78.6447 383.0
78.7116 440.0
78.7784 398.0
78.8453 420.0
78.9121 377.0
78.979 388.0
79.0458 409.0
79.1126 393.0
79.1795 396.0
79.2463 402.0
79.3132 377.0
79.38 381.0
79.4469 387.0
79.5137 402.0
79.5806 362.0
79.6474 378.0
79.7143 397.0
79.7811 411.0
79.8479 378.0
79.9148 347.0
79.9816 394.0
80.0485 383.0
80.1153 414.0
80.1822 383.0
80.249 382.0
80.3159 384.0
80.3827 371.0
80.4495 403.0
80.5164 326.0
80.5832 391.0
80.6501 413.0
80.7169 358.0
80.7838 436.0
80.8506 377.0
80.9175 355.0
80.9843 369.0
81.0512 376.0
81.118 346.0
81.1848 379.0
81.2517 361.0
81.3185 340.0
81.3854 380.0
81.4522 335.0
81.5191 350.0
81.5859 365.0
81.6528 346.0
81.7196 376.0
81.7864 316.0
81.8533 318.0
81.9201 347.0
81.987 366.0
82.0538 364.0
82.1207 319.0
82.1875 373.0
82.2544 353.0
82.3212 362.0
82.3881 325.0
82.4549 333.0
82.5217 340.0
82.5886 342.0
82.6554 347.0
82.7223 336.0
82.7891 360.0
82.856 349.0
82.9228 298.0
82.9897 344.0
83.0565 329.0
83.1233 320.0
83.1902 340.0
83.257 351.0
83.3239 290.0
83.3907 317.0
83.4576 355.0
83.5244 315.0
83.5913 306.0
83.6581 349.0
83.725 313.0
83.7918 333.0
83.8586 345.0
83.9255 306.0
83.9923 317.0
84.0592 303.0
84.126 347.0
84.1929 329.0
84.2597 300.0
84.3266 292.0
84.3934 321.0
84.4603 295.0
84.5271 292.0
84.5939 301.0
84.6608 303.0
84.7276 304.0
84.7945 287.0
84.8613 351.0
84.9282 302.0
84.995 332.0
85.0619 331.0
85.1287 298.0
85.1955 320.0
85.2624 316.0
85.3292 294.0
85.3961 316.0
85.4629 278.0
85.5298 316.0
85.5966 295.0
85.6635 300.0
85.7303 290.0
85.7972 285.0
85.864 313.0
85.9308 313.0
85.9977 273.0
86.0645 307.0
86.1314 325.0
86.1982 308.0
86.2651 316.0
86.3319 288.0
86.3988 305.0
86.4656 295.0
86.5324 319.0
86.5993 306.0
86.6661 311.0
86.733 278.0
86.7998 301.0
86.8667 300.0
86.9335 297.0
87.0004 253.0
87.0672 271.0
87.1341 273.0
87.2009 266.0
87.2677 277.0
87.3346 286.0
87.4014 287.0
87.4683 291.0
87.5351 283.0
87.602 263.0
87.6688 325.0
87.7357 289.0
87.8025 266.0
87.8693 291.0
87.9362 271.0
88.003 303.0
88.0699 297.0
88.1367 268.0
88.2036 255.0
88.2704 277.0
88.3373 290.0
88.4041 289.0
88.471 270.0
88.5378 287.0
88.6046 277.0
88.6715 247.0
88.7383 300.0
88.8052 270.0
88.872 274.0
88.9389 278.0
89.0057 299.0
89.0726 303.0
89.1394 288.0
89.2063 284.0
89.2731 285.0
89.3399 279.0
89.4068 293.0
89.4736 272.0
89.5405 261.0
89.6073 280.0
89.6742 262.0
89.741 290.0
89.8079 268.0
89.8747 282.0
89.9415 298.0