File: code/XRD_Analysis/External Sources/Alex_SAPO/20220715_SAPO-34_70_1_220707_calc650C_20h.xy
4.98146 1538.0
5.0483 1439.0
5.11515 1480.0
5.18199 1464.0
5.24884 1401.0
5.31568 1474.0
5.38253 1450.0
5.44937 1340.0
5.51622 1314.0
5.58306 1285.0
5.64991 1309.0
5.71675 1296.0
5.7836 1319.0
5.85044 1251.0
5.91729 1219.0
5.98413 1128.0
6.05098 1175.0
6.11782 1141.0
6.18467 1187.0
6.25151 1182.0
6.31836 1153.0
6.3852 1136.0
6.45205 1162.0
6.51889 1107.0
6.58574 1107.0
6.65258 1063.0
6.71943 1164.0
6.78627 1083.0
6.85312 1079.0
6.91996 1037.0
6.98681 1103.0
7.05365 960.0
7.1205 1033.0
7.18734 1041.0
7.25419 995.0
7.32103 995.0
7.38788 990.0
7.45472 1001.0
7.52157 1042.0
7.58841 930.0
7.65526 977.0
7.7221 962.0
7.78895 971.0
7.85579 924.0
7.92264 919.0
7.98948 965.0
8.05633 888.0
8.12317 947.0
8.19002 885.0
8.25686 869.0
8.32371 961.0
8.39055 942.0
8.4574 813.0
8.52424 865.0
8.59109 886.0
8.65793 939.0
8.72478 902.0
8.79162 865.0
8.85847 861.0
8.92532 887.0
8.99216 855.0
9.05901 875.0
9.12585 873.0
9.1927 985.0
9.25954 1100.0
9.32639 1461.0
9.39323 2658.0
9.46008 7327.0
9.52692 15436.0
9.59377 6992.0
9.66061 1661.0
9.72746 1135.0
9.7943 1025.0
9.86115 1021.0
9.92799 939.0
9.99484 877.0
10.0617 920.0
10.1285 912.0
10.1954 903.0
10.2622 929.0
10.3291 859.0
10.3959 875.0
10.4628 834.0
10.5296 865.0
10.5964 831.0
10.6633 797.0
10.7301 823.0
10.797 853.0
10.8638 808.0
10.9307 809.0
10.9975 814.0
11.0644 812.0
11.1312 750.0
11.198 745.0
11.2649 851.0
11.3317 792.0
11.3986 821.0
11.4654 776.0
11.5323 825.0
11.5991 829.0
11.666 778.0
11.7328 775.0
11.7997 817.0
11.8665 803.0
11.9333 820.0
12.0002 775.0
12.067 799.0
12.1339 784.0
12.2007 783.0
12.2676 846.0
12.3344 836.0
12.4013 862.0
12.4681 869.0
12.5349 877.0
12.6018 821.0
12.6686 784.0
12.7355 866.0
12.8023 1004.0
12.8692 1607.0
12.936 3829.0
13.0029 3597.0
13.0697 1494.0
13.1366 1017.0
13.2034 934.0
13.2702 910.0
13.3371 964.0
13.4039 998.0
13.4708 987.0
13.5376 893.0
13.6045 782.0
13.6713 685.0
13.7382 689.0
13.805 648.0
13.8719 732.0
13.9387 825.0
14.0055 872.0
14.0724 783.0
14.1392 744.0
14.2061 701.0
14.2729 667.0
14.3398 659.0
14.4066 736.0
14.4735 675.0
14.5403 695.0
14.6071 672.0
14.674 722.0
14.7408 678.0
14.8077 684.0
14.8745 715.0
14.9414 700.0
15.0082 650.0
15.0751 648.0
15.1419 694.0
15.2088 705.0
15.2756 691.0
15.3424 700.0
15.4093 721.0
15.4761 710.0
15.543 746.0
15.6098 716.0
15.6767 739.0
15.7435 766.0
15.8104 736.0
15.8772 752.0
15.944 825.0
16.0109 1157.0
16.0777 2381.0
16.1446 3285.0
16.2114 1891.0
16.2783 1020.0
16.3451 867.0
16.412 844.0
16.4788 825.0
16.5457 862.0
16.6125 906.0
16.6793 934.0
16.7462 960.0
16.813 1008.0
16.8799 1009.0
16.9467 1070.0
17.0136 1024.0
17.0804 1027.0
17.1473 981.0
17.2141 1054.0
17.2809 1021.0
17.3478 1003.0
17.4146 1016.0
17.4815 1001.0
17.5483 961.0
17.6152 1012.0
17.682 1109.0
17.7489 1395.0
17.8157 1801.0
17.8826 1469.0
17.9494 998.0
18.0162 957.0
18.0831 868.0
18.1499 872.0
18.2168 833.0
18.2836 803.0
18.3505 861.0
18.4173 821.0
18.4842 825.0
18.551 856.0
18.6179 823.0
18.6847 784.0
18.7515 826.0
18.8184 768.0
18.8852 793.0
18.9521 828.0
19.0189 876.0
19.0858 1273.0
19.1526 1486.0
19.2195 1241.0
19.2863 1011.0
19.3531 902.0
19.42 855.0
19.4868 794.0
19.5537 840.0
19.6205 861.0
19.6874 891.0
19.7542 861.0
19.8211 953.0
19.8879 1011.0
19.9548 1005.0
20.0216 933.0
20.0884 1024.0
20.1553 972.0
20.2221 1025.0
20.289 1116.0
20.3558 1090.0
20.4227 1131.0
20.4895 1187.0
20.5564 1326.0
20.6232 1727.0
20.69 3694.0
20.7569 5789.0
20.8237 4524.0
20.8906 2433.0
20.9574 1610.0
21.0243 1404.0
21.0911 1401.0
21.158 1396.0
21.2248 1377.0
21.2917 1435.0
21.3585 1431.0
21.4253 1470.0
21.4922 1335.0
21.559 1174.0
21.6259 1072.0
21.6927 981.0
21.7596 944.0
21.8264 928.0
21.8933 948.0
21.9601 935.0
22.0269 995.0
22.0938 1078.0
22.1606 1076.0
22.2275 1044.0
22.2943 945.0
22.3612 1010.0
22.428 912.0
22.4949 973.0
22.5617 1070.0
22.6286 1074.0
22.6954 1033.0
22.7622 1017.0
22.8291 1027.0
22.8959 1086.0
22.9628 1052.0
23.0296 1111.0
23.0965 1197.0
23.1633 1631.0
23.2302 2143.0
23.297 1703.0
23.3639 1373.0
23.4307 1133.0
23.4975 1115.0
23.5644 1163.0
23.6312 1074.0
23.6981 1188.0
23.7649 1200.0
23.8318 1151.0
23.8986 1235.0
23.9655 1230.0
24.0323 1239.0
24.0991 1220.0
24.166 1254.0
24.2328 1222.0
24.2997 1331.0
24.3665 1306.0
24.4334 1323.0
24.5002 1262.0
24.5671 1288.0
24.6339 1310.0
24.7008 1375.0
24.7676 1339.0
24.8344 1385.0
24.9013 1557.0
24.9681 1841.0
25.035 2192.0
25.1018 2053.0
25.1687 1685.0
25.2355 1444.0
25.3024 1392.0
25.3692 1369.0
25.436 1326.0
25.5029 1344.0
25.5697 1353.0
25.6366 1352.0
25.7034 1337.0
25.7703 1359.0
25.8371 1328.0
25.904 1410.0
25.9708 1490.0
26.0377 1927.0
26.1045 2713.0
26.1713 2749.0
26.2382 2111.0
26.305 1610.0
26.3719 1403.0
26.4387 1293.0
26.5056 1296.0
26.5724 1305.0
26.6393 1226.0
26.7061 1255.0
26.773 1226.0
26.8398 1210.0
26.9066 1174.0
26.9735 1164.0
27.0403 1162.0
27.1072 1134.0
27.174 1176.0
27.2409 1142.0
27.3077 1138.0
27.3746 1083.0
27.4414 1133.0
27.5082 1137.0
27.5751 1097.0
27.6419 1114.0
27.7088 1181.0
27.7756 1248.0
27.8425 1419.0
27.9093 1432.0
27.9762 1378.0
28.043 1222.0
28.1099 1297.0
28.1767 1254.0
28.2435 1441.0
28.3104 1472.0
28.3772 1502.0
28.4441 1338.0
28.5109 1214.0
28.5778 1161.0
28.6446 1130.0
28.7115 1178.0
28.7783 1135.0
28.8451 1137.0
28.912 1079.0
28.9788 1063.0
29.0457 1141.0
29.1125 1117.0
29.1794 1085.0
29.2462 1183.0
29.3131 1184.0
29.3799 1138.0
29.4468 1115.0
29.5136 1134.0
29.5804 1203.0
29.6473 1279.0
29.7141 1338.0
29.781 1505.0
29.8478 1444.0
29.9147 1359.0
29.9815 1325.0
30.0484 1325.0
30.1152 1470.0
30.182 1353.0
30.2489 1510.0
30.3157 1481.0
30.3826 1606.0
30.4494 1715.0
30.5163 1762.0
30.5831 1869.0
30.65 1980.0
30.7168 2127.0
30.7837 2610.0
30.8505 3402.0
30.9173 3793.0
30.9842 3412.0
31.051 2945.0
31.1179 2877.0
31.1847 3061.0
31.2516 3023.0
31.3184 2812.0
31.3853 2370.0
31.4521 1942.0
31.519 1672.0
31.5858 1523.0
31.6526 1386.0
31.7195 1443.0
31.7863 1402.0
31.8532 1465.0
31.92 1488.0
31.9869 1418.0
32.0537 1291.0
32.1206 1226.0
32.1874 1168.0
32.2542 1149.0
32.3211 1151.0
32.3879 1126.0
32.4548 1051.0
32.5216 1067.0
32.5885 1145.0
32.6553 1134.0
32.7222 1157.0
32.789 1032.0
32.8559 980.0
32.9227 1051.0
32.9895 977.0
33.0564 948.0
33.1232 934.0
33.1901 930.0
33.2569 992.0
33.3238 901.0
33.3906 932.0
33.4575 916.0
33.5243 1028.0
33.5911 924.0
33.658 979.0
33.7248 1005.0
33.7917 991.0
33.8585 925.0
33.9254 903.0
33.9922 860.0
34.0591 904.0
34.1259 832.0
34.1928 883.0
34.2596 850.0
34.3264 788.0
34.3933 819.0
34.4601 794.0
34.527 870.0
34.5938 812.0
34.6607 824.0
34.7275 888.0
34.7944 1031.0
34.8612 1033.0
34.928 1020.0
34.9949 893.0
35.0617 876.0
35.1286 775.0
35.1954 810.0
35.2623 848.0
35.3291 836.0
35.396 790.0
35.4628 784.0
35.5297 760.0
35.5965 769.0
35.6633 740.0
35.7302 787.0
35.797 719.0
35.8639 726.0
35.9307 731.0
35.9976 685.0
36.0644 743.0
36.1313 764.0
36.1981 817.0
36.265 802.0
36.3318 727.0
36.3986 735.0
36.4655 717.0
36.5323 627.0
36.5992 645.0
36.666 670.0
36.7329 628.0
36.7997 646.0
36.8666 583.0
36.9334 662.0
37.0002 666.0
37.0671 619.0
37.1339 616.0
37.2008 587.0
37.2676 610.0
37.3345 628.0
37.4013 609.0
37.4682 638.0
37.535 605.0
37.6019 579.0
37.6687 603.0
37.7355 623.0
37.8024 601.0
37.8692 633.0
37.9361 578.0
38.0029 573.0
38.0698 594.0
38.1366 554.0
38.2035 601.0
38.2703 604.0
38.3371 553.0
38.404 586.0
38.4708 561.0
38.5377 583.0
38.6045 498.0
38.6714 584.0
38.7382 585.0
38.8051 557.0
38.8719 607.0
38.9388 673.0
39.0056 613.0
39.0724 621.0
39.1393 614.0
39.2061 568.0
39.273 629.0
39.3398 615.0
39.4067 615.0
39.4735 642.0
39.5404 621.0
39.6072 576.0
39.6741 644.0
39.7409 645.0
39.8077 586.0
39.8746 607.0
39.9414 667.0
40.0083 635.0
40.0751 670.0
40.142 606.0
40.2088 634.0
40.2757 599.0
40.3425 588.0
40.4093 587.0
40.4762 563.0
40.543 601.0
40.6099 560.0
40.6767 587.0
40.7436 588.0
40.8104 588.0
40.8773 558.0
40.9441 586.0
41.011 589.0
41.0778 590.0
41.1446 540.0
41.2115 576.0
41.2783 539.0
41.3452 567.0
41.412 582.0
41.4789 600.0
41.5457 588.0
41.6126 623.0
41.6794 553.0
41.7462 580.0
41.8131 573.0
41.8799 573.0
41.9468 627.0
42.0136 570.0
42.0805 610.0
42.1473 592.0
42.2142 553.0
42.281 617.0
42.3479 583.0
42.4147 536.0
42.4815 555.0
42.5484 588.0
42.6152 528.0
42.6821 565.0
42.7489 548.0
42.8158 564.0
42.8826 543.0
42.9495 548.0
43.0163 619.0
43.0831 645.0
43.15 588.0
43.2168 653.0
43.2837 623.0
43.3505 556.0
43.4174 622.0
43.4842 607.0
43.5511 600.0
43.6179 569.0
43.6848 612.0
43.7516 621.0
43.8184 616.0
43.8853 658.0
43.9521 643.0
44.019 666.0
44.0858 564.0
44.1527 571.0
44.2195 527.0
44.2864 539.0
44.3532 567.0
44.4201 594.0
44.4869 626.0
44.5537 567.0
44.6206 513.0
44.6874 514.0
44.7543 553.0
44.8211 576.0
44.888 561.0
44.9548 525.0
45.0217 545.0
45.0885 560.0
45.1553 588.0
45.2222 580.0
45.289 541.0
45.3559 553.0
45.4227 522.0
45.4896 554.0
45.5564 571.0
45.6233 522.0
45.6901 570.0
45.757 511.0
45.8238 519.0
45.8906 528.0
45.9575 516.0
46.0243 521.0
46.0912 506.0
46.158 551.0
46.2249 511.0
46.2917 548.0
46.3586 523.0
46.4254 488.0
46.4922 531.0
46.5591 539.0
46.6259 576.0
46.6928 532.0
46.7596 545.0
46.8265 522.0
46.8933 489.0
46.9602 552.0
47.027 513.0
47.0939 555.0
47.1607 538.0
47.2275 549.0
47.2944 531.0
47.3612 543.0
47.4281 524.0
47.4949 542.0
47.5618 497.0
47.6286 542.0
47.6955 490.0
47.7623 528.0
47.8291 534.0
47.896 520.0
47.9628 543.0
48.0297 549.0
48.0965 525.0
48.1634 604.0
48.2302 610.0
48.2971 553.0
48.3639 538.0
48.4308 559.0
48.4976 529.0
48.5644 509.0
48.6313 535.0
48.6981 491.0
48.765 518.0
48.8318 520.0
48.8987 554.0
48.9655 549.0
49.0324 574.0
49.0992 654.0
49.1661 708.0
49.2329 713.0
49.2997 764.0
49.3666 773.0
49.4334 708.0
49.5003 580.0
49.5671 614.0
49.634 604.0
49.7008 538.0
49.7677 580.0
49.8345 545.0
49.9013 542.0
49.9682 534.0
50.035 534.0
50.1019 603.0
50.1687 571.0
50.2356 564.0
50.3024 582.0
50.3693 602.0
50.4361 580.0
50.503 542.0
50.5698 605.0
50.6366 622.0
50.7035 556.0
50.7703 613.0
50.8372 532.0
50.904 590.0
50.9709 619.0
51.0377 615.0
51.1046 645.0
51.1714 631.0
51.2382 667.0
51.3051 612.0
51.3719 626.0
51.4388 536.0
51.5056 573.0
51.5725 521.0
51.6393 538.0
51.7062 570.0
51.773 519.0
51.8399 569.0
51.9067 556.0
51.9735 525.0
52.0404 528.0
52.1072 552.0
52.1741 535.0
52.2409 506.0
52.3078 553.0
52.3746 552.0
52.4415 513.0
52.5083 548.0
52.5751 502.0
52.642 536.0
52.7088 502.0
52.7757 521.0
52.8425 514.0
52.9094 491.0
52.9762 495.0
53.0431 501.0
53.1099 507.0
53.1768 489.0
53.2436 539.0
53.3104 559.0
53.3773 474.0
53.4441 500.0
53.511 493.0
53.5778 519.0
53.6447 555.0
53.7115 567.0
53.7784 585.0
53.8452 586.0
53.9121 572.0
53.9789 591.0
54.0457 512.0
54.1126 544.0
54.1794 528.0
54.2463 505.0
54.3131 500.0
54.38 531.0
54.4468 516.0
54.5137 524.0
54.5805 559.0
54.6473 512.0
54.7142 523.0
54.781 548.0
54.8479 536.0
54.9147 528.0
54.9816 500.0
55.0484 511.0
55.1153 525.0
55.1821 498.0
55.249 473.0
55.3158 551.0
55.3826 529.0
55.4495 504.0
55.5163 521.0
55.5832 497.0
55.65 527.0
55.7169 527.0
55.7837 550.0
55.8506 520.0
55.9174 528.0
55.9842 521.0
56.0511 573.0
56.1179 478.0
56.1848 519.0
56.2516 523.0
56.3185 506.0
56.3853 496.0
56.4522 542.0
56.519 584.0
56.5859 473.0
56.6527 556.0
56.7195 512.0
56.7864 537.0
56.8532 544.0
56.9201 532.0
56.9869 514.0
57.0538 521.0
57.1206 471.0
57.1875 483.0
57.2543 487.0
57.3212 524.0
57.388 459.0
57.4548 466.0
57.5217 429.0
57.5885 441.0
57.6554 479.0
57.7222 435.0
57.7891 477.0
57.8559 469.0
57.9228 481.0
57.9896 458.0
58.0564 464.0
58.1233 475.0
58.1901 469.0
58.257 413.0
58.3238 457.0
58.3907 448.0
58.4575 476.0
58.5244 431.0
58.5912 521.0
58.6581 456.0
58.7249 475.0
58.7917 467.0
58.8586 455.0
58.9254 457.0
58.9923 443.0
59.0591 442.0
59.126 439.0
59.1928 436.0
59.2597 451.0
59.3265 493.0
59.3933 510.0
59.4602 447.0
59.527 414.0
59.5939 457.0
59.6607 471.0
59.7276 454.0
59.7944 490.0
59.8613 500.0
59.9281 459.0
59.995 461.0
60.0618 524.0
60.1286 497.0
60.1955 496.0
60.2623 488.0
60.3292 516.0
60.396 466.0
60.4629 494.0
60.5297 451.0
60.5966 463.0
60.6634 446.0
60.7302 459.0
60.7971 471.0
60.8639 502.0
60.9308 445.0
60.9976 435.0
61.0645 438.0
61.1313 496.0
61.1982 471.0
61.265 446.0
61.3319 451.0
61.3987 439.0
61.4655 505.0
61.5324 496.0
61.5992 511.0
61.6661 427.0
61.7329 521.0
61.7998 549.0
61.8666 472.0
61.9335 463.0
62.0003 516.0
62.0672 473.0
62.134 434.0
62.2008 456.0
62.2677 442.0
62.3345 472.0
62.4014 512.0
62.4682 474.0
62.5351 458.0
62.6019 459.0
62.6688 435.0
62.7356 470.0
62.8024 477.0
62.8693 480.0
62.9361 473.0
63.003 450.0
63.0698 431.0
63.1367 433.0
63.2035 429.0
63.2704 446.0
63.3372 471.0
63.4041 450.0
63.4709 471.0
63.5377 445.0
63.6046 438.0
63.6714 476.0
63.7383 450.0
63.8051 448.0
63.872 473.0
63.9388 454.0
64.0057 438.0
64.0725 456.0
64.1393 439.0
64.2062 450.0
64.273 422.0
64.3399 454.0
64.4067 428.0
64.4736 428.0
64.5404 457.0
64.6073 426.0
64.6741 385.0
64.741 410.0
64.8078 485.0
64.8746 481.0
64.9415 477.0
65.0083 438.0
65.0752 490.0
65.142 465.0
65.2089 420.0
65.2757 422.0
65.3426 438.0
65.4094 403.0
65.4762 463.0
65.5431 461.0
65.6099 457.0
65.6768 443.0
65.7436 439.0
65.8105 454.0
65.8773 414.0
65.9442 474.0
66.011 450.0
66.0779 470.0
66.1447 459.0
66.2115 450.0
66.2784 465.0
66.3452 461.0
66.4121 465.0
66.4789 492.0
66.5458 446.0
66.6126 488.0
66.6795 469.0
66.7463 444.0
66.8132 478.0
66.88 479.0
66.9468 502.0
67.0137 490.0
67.0805 478.0
67.1474 474.0
67.2142 490.0
67.2811 512.0
67.3479 503.0
67.4148 456.0
67.4816 432.0
67.5484 447.0
67.6153 492.0
67.6821 458.0
67.749 435.0
67.8158 441.0
67.8827 449.0
67.9495 409.0
68.0164 432.0
68.0832 476.0
68.1501 470.0
68.2169 415.0
68.2837 440.0
68.3506 420.0
68.4174 432.0
68.4843 462.0
68.5511 442.0
68.618 447.0
68.6848 442.0
68.7517 423.0
68.8185 402.0
68.8853 442.0
68.9522 414.0
69.019 370.0
69.0859 414.0
69.1527 409.0
69.2196 424.0
69.2864 409.0
69.3533 395.0
69.4201 425.0
69.487 408.0
69.5538 369.0
69.6206 442.0
69.6875 428.0
69.7543 425.0
69.8212 429.0
69.888 432.0
69.9549 428.0
70.0217 448.0
70.0886 399.0
70.1554 413.0
70.2222 383.0
70.2891 407.0
70.3559 436.0
70.4228 387.0
70.4896 412.0
70.5565 422.0
70.6233 416.0
70.6902 406.0
70.757 442.0
70.8239 423.0
70.8907 398.0
70.9575 425.0
71.0244 439.0
71.0912 412.0
71.1581 449.0
71.2249 450.0
71.2918 420.0
71.3586 419.0
71.4255 373.0
71.4923 407.0
71.5592 401.0
71.626 422.0
71.6928 395.0
71.7597 412.0
71.8265 434.0
71.8934 418.0
71.9602 418.0
72.0271 375.0
72.0939 417.0
72.1608 439.0
72.2276 381.0
72.2944 410.0
72.3613 398.0
72.4281 428.0
72.495 387.0
72.5618 336.0
72.6287 382.0
72.6955 371.0
72.7624 429.0
72.8292 366.0
72.8961 404.0
72.9629 407.0
73.0297 406.0
73.0966 411.0
73.1634 400.0
73.2303 406.0
73.2971 391.0
73.364 384.0
73.4308 379.0
73.4977 396.0
73.5645 379.0
73.6313 379.0
73.6982 391.0
73.765 378.0
73.8319 397.0
73.8987 387.0
73.9656 387.0
74.0324 352.0
74.0993 371.0
74.1661 351.0
74.233 387.0
74.2998 408.0
74.3666 372.0
74.4335 371.0
74.5003 367.0
74.5672 366.0
74.634 381.0
74.7009 366.0
74.7677 373.0
74.8346 365.0
74.9014 376.0
74.9683 340.0
75.0351 351.0
75.1019 377.0
75.1688 329.0
75.2356 378.0
75.3025 377.0
75.3693 391.0
75.4362 381.0
75.503 363.0
75.5699 333.0
75.6367 357.0
75.7035 368.0
75.7704 380.0
75.8372 339.0
75.9041 355.0
75.9709 376.0
76.0378 371.0
76.1046 349.0
76.1715 338.0
76.2383 360.0
76.3052 368.0
76.372 365.0
76.4388 411.0
76.5057 344.0
76.5725 300.0
76.6394 294.0
76.7062 354.0
76.7731 351.0
76.8399 321.0
76.9068 340.0
76.9736 310.0
77.0404 360.0
77.1073 324.0
77.1741 331.0
77.241 334.0
77.3078 378.0
77.3747 353.0
77.4415 352.0
77.5084 301.0
77.5752 351.0
77.6421 372.0
77.7089 332.0
77.7757 323.0
77.8426 313.0
77.9094 304.0
77.9763 351.0
78.0431 337.0
78.11 332.0
78.1768 289.0
78.2437 331.0
78.3105 318.0
78.3773 325.0
78.4442 320.0
78.511 332.0
78.5779 344.0
78.6447 344.0
78.7116 341.0
78.7784 351.0
78.8453 320.0
78.9121 345.0
78.979 334.0
79.0458 311.0
79.1126 306.0
79.1795 328.0
79.2463 305.0
79.3132 316.0
79.38 315.0
79.4469 334.0
79.5137 316.0
79.5806 297.0
79.6474 317.0
79.7143 330.0
79.7811 300.0
79.8479 323.0
79.9148 328.0
79.9816 294.0
80.0485 307.0
80.1153 303.0
80.1822 298.0
80.249 309.0
80.3159 326.0
80.3827 340.0
80.4495 298.0
80.5164 290.0
80.5832 274.0
80.6501 290.0
80.7169 277.0
80.7838 290.0
80.8506 308.0
80.9175 336.0
80.9843 314.0
81.0512 292.0
81.118 313.0
81.1848 317.0
81.2517 306.0
81.3185 331.0
81.3854 315.0
81.4522 291.0
81.5191 300.0
81.5859 308.0
81.6528 301.0
81.7196 295.0
81.7864 304.0
81.8533 282.0
81.9201 310.0
81.987 280.0
82.0538 305.0
82.1207 263.0
82.1875 290.0
82.2544 269.0
82.3212 285.0
82.3881 242.0
82.4549 306.0
82.5217 273.0
82.5886 272.0
82.6554 308.0
82.7223 292.0
82.7891 261.0
82.856 268.0
82.9228 268.0
82.9897 269.0
83.0565 229.0
83.1233 277.0
83.1902 298.0
83.257 250.0
83.3239 263.0
83.3907 282.0
83.4576 284.0
83.5244 259.0
83.5913 253.0
83.6581 251.0
83.725 280.0
83.7918 267.0
83.8586 269.0
83.9255 250.0
83.9923 235.0
84.0592 235.0
84.126 282.0
84.1929 241.0
84.2597 228.0
84.3266 236.0
84.3934 246.0
84.4603 269.0
84.5271 238.0
84.5939 258.0
84.6608 228.0
84.7276 270.0
84.7945 266.0
84.8613 247.0
84.9282 251.0
84.995 267.0
85.0619 232.0
85.1287 297.0
85.1955 208.0
85.2624 242.0
85.3292 254.0
85.3961 251.0
85.4629 242.0
85.5298 245.0
85.5966 233.0
85.6635 250.0
85.7303 206.0
85.7972 237.0
85.864 239.0
85.9308 238.0
85.9977 242.0
86.0645 241.0
86.1314 240.0
86.1982 241.0
86.2651 210.0
86.3319 222.0
86.3988 227.0
86.4656 243.0
86.5324 248.0
86.5993 229.0
86.6661 217.0
86.733 248.0
86.7998 245.0
86.8667 229.0
86.9335 227.0
87.0004 241.0
87.0672 225.0
87.1341 232.0
87.2009 259.0
87.2677 264.0
87.3346 243.0
87.4014 239.0
87.4683 235.0
87.5351 198.0
87.602 250.0
87.6688 232.0
87.7357 242.0
87.8025 248.0
87.8693 241.0
87.9362 242.0
88.003 213.0
88.0699 252.0
88.1367 231.0
88.2036 212.0
88.2704 239.0
88.3373 232.0
88.4041 215.0
88.471 241.0
88.5378 212.0
88.6046 232.0
88.6715 245.0
88.7383 226.0
88.8052 225.0
88.872 203.0
88.9389 245.0
89.0057 221.0
89.0726 185.0
89.1394 219.0
89.2063 230.0
89.2731 238.0
89.3399 222.0
89.4068 232.0
89.4736 214.0
89.5405 219.0
89.6073 235.0
89.6742 220.0
89.741 231.0
89.8079 195.0
89.8747 216.0
89.9415 220.0