File: code/XRD_Analysis/External Sources/Alex_SAPO/20220730_SAPO-34_30_2_220725_calc650C.xy
4.98146 1454.0
5.0483 1444.0
5.11515 1431.0
5.18199 1395.0
5.24884 1357.0
5.31568 1326.0
5.38253 1356.0
5.44937 1318.0
5.51622 1262.0
5.58306 1324.0
5.64991 1237.0
5.71675 1272.0
5.7836 1240.0
5.85044 1245.0
5.91729 1174.0
5.98413 1163.0
6.05098 1210.0
6.11782 1123.0
6.18467 1144.0
6.25151 1076.0
6.31836 1096.0
6.3852 1064.0
6.45205 1128.0
6.51889 1088.0
6.58574 1118.0
6.65258 1081.0
6.71943 1083.0
6.78627 1095.0
6.85312 1053.0
6.91996 1053.0
6.98681 1068.0
7.05365 998.0
7.1205 1084.0
7.18734 1062.0
7.25419 1148.0
7.32103 1455.0
7.38788 2269.0
7.45472 1302.0
7.52157 966.0
7.58841 927.0
7.65526 962.0
7.7221 945.0
7.78895 937.0
7.85579 941.0
7.92264 924.0
7.98948 928.0
8.05633 938.0
8.12317 926.0
8.19002 947.0
8.25686 897.0
8.32371 929.0
8.39055 834.0
8.4574 839.0
8.52424 865.0
8.59109 876.0
8.65793 901.0
8.72478 844.0
8.79162 859.0
8.85847 885.0
8.92532 832.0
8.99216 862.0
9.05901 899.0
9.12585 884.0
9.1927 991.0
9.25954 1112.0
9.32639 1538.0
9.39323 3283.0
9.46008 9458.0
9.52692 12401.0
9.59377 4052.0
9.66061 1539.0
9.72746 1156.0
9.7943 1058.0
9.86115 1065.0
9.92799 1047.0
9.99484 976.0
10.0617 971.0
10.1285 962.0
10.1954 946.0
10.2622 918.0
10.3291 915.0
10.3959 877.0
10.4628 862.0
10.5296 865.0
10.5964 855.0
10.6633 907.0
10.7301 831.0
10.797 878.0
10.8638 798.0
10.9307 895.0
10.9975 882.0
11.0644 855.0
11.1312 752.0
11.198 823.0
11.2649 835.0
11.3317 774.0
11.3986 800.0
11.4654 757.0
11.5323 764.0
11.5991 776.0
11.666 773.0
11.7328 810.0
11.7997 734.0
11.8665 732.0
11.9333 747.0
12.0002 803.0
12.067 769.0
12.1339 756.0
12.2007 746.0
12.2676 741.0
12.3344 753.0
12.4013 712.0
12.4681 777.0
12.5349 757.0
12.6018 817.0
12.6686 782.0
12.7355 932.0
12.8023 1486.0
12.8692 2307.0
12.936 3258.0
13.0029 1657.0
13.0697 932.0
13.1366 790.0
13.2034 857.0
13.2702 840.0
13.3371 892.0
13.4039 1009.0
13.4708 1073.0
13.5376 892.0
13.6045 725.0
13.6713 675.0
13.7382 691.0
13.805 657.0
13.8719 728.0
13.9387 791.0
14.0055 752.0
14.0724 725.0
14.1392 708.0
14.2061 643.0
14.2729 647.0
14.3398 651.0
14.4066 643.0
14.4735 666.0
14.5403 686.0
14.6071 711.0
14.674 653.0
14.7408 683.0
14.8077 768.0
14.8745 778.0
14.9414 675.0
15.0082 707.0
15.0751 651.0
15.1419 663.0
15.2088 684.0
15.2756 652.0
15.3424 653.0
15.4093 694.0
15.4761 647.0
15.543 746.0
15.6098 731.0
15.6767 724.0
15.7435 699.0
15.8104 721.0
15.8772 764.0
15.944 895.0
16.0109 1400.0
16.0777 2430.0
16.1446 2387.0
16.2114 1103.0
16.2783 854.0
16.3451 831.0
16.412 838.0
16.4788 789.0
16.5457 849.0
16.6125 907.0
16.6793 973.0
16.7462 1058.0
16.813 1174.0
16.8799 1212.0
16.9467 1266.0
17.0136 1283.0
17.0804 1162.0
17.1473 1136.0
17.2141 1025.0
17.2809 990.0
17.3478 1013.0
17.4146 970.0
17.4815 935.0
17.5483 988.0
17.6152 948.0
17.682 1041.0
17.7489 1033.0
17.8157 1027.0
17.8826 903.0
17.9494 844.0
18.0162 825.0
18.0831 792.0
18.1499 817.0
18.2168 784.0
18.2836 790.0
18.3505 810.0
18.4173 814.0
18.4842 802.0
18.551 791.0
18.6179 808.0
18.6847 792.0
18.7515 784.0
18.8184 803.0
18.8852 812.0
18.9521 903.0
19.0189 1049.0
19.0858 1395.0
19.1526 1325.0
19.2195 1067.0
19.2863 902.0
19.3531 851.0
19.42 872.0
19.4868 857.0
19.5537 910.0
19.6205 1169.0
19.6874 1569.0
19.7542 1276.0
19.8211 1126.0
19.8879 1029.0
19.9548 1120.0
20.0216 1363.0
20.0884 1450.0
20.1553 1747.0
20.2221 2135.0
20.289 2265.0
20.3558 2251.0
20.4227 2100.0
20.4895 1902.0
20.5564 2034.0
20.6232 2759.0
20.69 4159.0
20.7569 3880.0
20.8237 2471.0
20.8906 1796.0
20.9574 1746.0
21.0243 1813.0
21.0911 2837.0
21.158 2925.0
21.2248 2466.0
21.2917 2813.0
21.3585 3626.0
21.4253 3745.0
21.4922 2960.0
21.559 2037.0
21.6259 1572.0
21.6927 1379.0
21.7596 1268.0
21.8264 1197.0
21.8933 1216.0
21.9601 1220.0
22.0269 1316.0
22.0938 1290.0
22.1606 1294.0
22.2275 1359.0
22.2943 1878.0
22.3612 2934.0
22.428 2618.0
22.4949 1742.0
22.5617 1418.0
22.6286 1399.0
22.6954 1493.0
22.7622 1447.0
22.8291 1538.0
22.8959 1441.0
22.9628 1437.0
23.0296 1455.0
23.0965 1528.0
23.1633 1786.0
23.2302 1854.0
23.297 1520.0
23.3639 1316.0
23.4307 1224.0
23.4975 1221.0
23.5644 1232.0
23.6312 1170.0
23.6981 1270.0
23.7649 1246.0
23.8318 1412.0
23.8986 1363.0
23.9655 1408.0
24.0323 1379.0
24.0991 1424.0
24.166 1301.0
24.2328 1386.0
24.2997 1398.0
24.3665 1362.0
24.4334 1279.0
24.5002 1370.0
24.5671 1283.0
24.6339 1290.0
24.7008 1338.0
24.7676 1395.0
24.8344 1422.0
24.9013 1444.0
24.9681 1485.0
25.035 1461.0
25.1018 1366.0
25.1687 1378.0
25.2355 1341.0
25.3024 1195.0
25.3692 1256.0
25.436 1239.0
25.5029 1328.0
25.5697 1261.0
25.6366 1320.0
25.7034 1329.0
25.7703 1432.0
25.8371 1833.0
25.904 2120.0
25.9708 2079.0
26.0377 2341.0
26.1045 2347.0
26.1713 1927.0
26.2382 1448.0
26.305 1442.0
26.3719 1366.0
26.4387 1349.0
26.5056 1320.0
26.5724 1373.0
26.6393 1307.0
26.7061 1290.0
26.773 1254.0
26.8398 1207.0
26.9066 1259.0
26.9735 1221.0
27.0403 1281.0
27.1072 1259.0
27.174 1230.0
27.2409 1158.0
27.3077 1129.0
27.3746 1140.0
27.4414 1165.0
27.5082 1226.0
27.5751 1127.0
27.6419 1151.0
27.7088 1166.0
27.7756 1306.0
27.8425 1376.0
27.9093 1387.0
27.9762 1284.0
28.043 1220.0
28.1099 1304.0
28.1767 1369.0
28.2435 1450.0
28.3104 1332.0
28.3772 1274.0
28.4441 1255.0
28.5109 1246.0
28.5778 1164.0
28.6446 1118.0
28.7115 1162.0
28.7783 1121.0
28.8451 1207.0
28.912 1214.0
28.9788 1463.0
29.0457 1672.0
29.1125 1465.0
29.1794 1259.0
29.2462 1164.0
29.3131 1170.0
29.3799 1206.0
29.4468 1137.0
29.5136 1161.0
29.5804 1218.0
29.6473 1406.0
29.7141 1404.0
29.781 1458.0
29.8478 1375.0
29.9147 1534.0
29.9815 1779.0
30.0484 1734.0
30.1152 1587.0
30.182 1650.0
30.2489 1611.0
30.3157 1696.0
30.3826 1719.0
30.4494 1734.0
30.5163 1900.0
30.5831 2010.0
30.65 1986.0
30.7168 1970.0
30.7837 2180.0
30.8505 2321.0
30.9173 2230.0
30.9842 2152.0
31.051 2263.0
31.1179 2635.0
31.1847 2766.0
31.2516 2596.0
31.3184 2443.0
31.3853 2114.0
31.4521 1818.0
31.519 1628.0
31.5858 1449.0
31.6526 1345.0
31.7195 1396.0
31.7863 1418.0
31.8532 1400.0
31.92 1341.0
31.9869 1347.0
32.0537 1287.0
32.1206 1330.0
32.1874 1260.0
32.2542 1257.0
32.3211 1170.0
32.3879 1257.0
32.4548 1197.0
32.5216 1263.0
32.5885 1212.0
32.6553 1200.0
32.7222 1107.0
32.789 1136.0
32.8559 1106.0
32.9227 1009.0
32.9895 993.0
33.0564 955.0
33.1232 987.0
33.1901 1028.0
33.2569 973.0
33.3238 973.0
33.3906 937.0
33.4575 901.0
33.5243 939.0
33.5911 978.0
33.658 1081.0
33.7248 1013.0
33.7917 926.0
33.8585 886.0
33.9254 909.0
33.9922 870.0
34.0591 886.0
34.1259 806.0
34.1928 869.0
34.2596 867.0
34.3264 849.0
34.3933 940.0
34.4601 1075.0
34.527 1161.0
34.5938 945.0
34.6607 883.0
34.7275 889.0
34.7944 920.0
34.8612 875.0
34.928 821.0
34.9949 915.0
35.0617 886.0
35.1286 961.0
35.1954 906.0
35.2623 933.0
35.3291 909.0
35.396 1075.0
35.4628 1064.0
35.5297 1058.0
35.5965 997.0
35.6633 946.0
35.7302 925.0
35.797 810.0
35.8639 790.0
35.9307 791.0
35.9976 797.0
36.0644 735.0
36.1313 770.0
36.1981 724.0
36.265 771.0
36.3318 712.0
36.3986 707.0
36.4655 693.0
36.5323 712.0
36.5992 659.0
36.666 678.0
36.7329 657.0
36.7997 635.0
36.8666 675.0
36.9334 668.0
37.0002 715.0
37.0671 708.0
37.1339 650.0
37.2008 656.0
37.2676 658.0
37.3345 652.0
37.4013 589.0
37.4682 574.0
37.535 612.0
37.6019 606.0
37.6687 684.0
37.7355 710.0
37.8024 759.0
37.8692 773.0
37.9361 684.0
38.0029 615.0
38.0698 572.0
38.1366 591.0
38.2035 566.0
38.2703 592.0
38.3371 574.0
38.404 573.0
38.4708 592.0
38.5377 584.0
38.6045 534.0
38.6714 617.0
38.7382 609.0
38.8051 592.0
38.8719 574.0
38.9388 596.0
39.0056 632.0
39.0724 614.0
39.1393 596.0
39.2061 619.0
39.273 588.0
39.3398 587.0
39.4067 575.0
39.4735 569.0
39.5404 581.0
39.6072 582.0
39.6741 569.0
39.7409 589.0
39.8077 603.0
39.8746 601.0
39.9414 573.0
40.0083 576.0
40.0751 580.0
40.142 559.0
40.2088 572.0
40.2757 555.0
40.3425 604.0
40.4093 572.0
40.4762 591.0
40.543 603.0
40.6099 563.0
40.6767 578.0
40.7436 571.0
40.8104 579.0
40.8773 565.0
40.9441 548.0
41.011 558.0
41.0778 544.0
41.1446 522.0
41.2115 605.0
41.2783 551.0
41.3452 542.0
41.412 567.0
41.4789 594.0
41.5457 594.0
41.6126 545.0
41.6794 590.0
41.7462 580.0
41.8131 567.0
41.8799 573.0
41.9468 636.0
42.0136 544.0
42.0805 599.0
42.1473 584.0
42.2142 622.0
42.281 596.0
42.3479 607.0
42.4147 573.0
42.4815 618.0
42.5484 602.0
42.6152 595.0
42.6821 606.0
42.7489 589.0
42.8158 565.0
42.8826 579.0
42.9495 603.0
43.0163 609.0
43.0831 613.0
43.15 664.0
43.2168 578.0
43.2837 600.0
43.3505 635.0
43.4174 635.0
43.4842 646.0
43.5511 645.0
43.6179 661.0
43.6848 639.0
43.7516 592.0
43.8184 625.0
43.8853 596.0
43.9521 567.0
44.019 549.0
44.0858 570.0
44.1527 554.0
44.2195 558.0
44.2864 557.0
44.3532 574.0
44.4201 575.0
44.4869 534.0
44.5537 586.0
44.6206 583.0
44.6874 554.0
44.7543 561.0
44.8211 549.0
44.888 586.0
44.9548 567.0
45.0217 513.0
45.0885 549.0
45.1553 513.0
45.2222 542.0
45.289 556.0
45.3559 502.0
45.4227 555.0
45.4896 497.0
45.5564 540.0
45.6233 505.0
45.6901 492.0
45.757 541.0
45.8238 524.0
45.8906 536.0
45.9575 491.0
46.0243 508.0
46.0912 453.0
46.158 533.0
46.2249 542.0
46.2917 516.0
46.3586 541.0
46.4254 557.0
46.4922 494.0
46.5591 517.0
46.6259 519.0
46.6928 516.0
46.7596 551.0
46.8265 508.0
46.8933 491.0
46.9602 507.0
47.027 527.0
47.0939 531.0
47.1607 525.0
47.2275 514.0
47.2944 526.0
47.3612 510.0
47.4281 514.0
47.4949 480.0
47.5618 500.0
47.6286 559.0
47.6955 502.0
47.7623 572.0
47.8291 600.0
47.896 544.0
47.9628 487.0
48.0297 509.0
48.0965 520.0
48.1634 482.0
48.2302 535.0
48.2971 569.0
48.3639 514.0
48.4308 491.0
48.4976 532.0
48.5644 512.0
48.6313 504.0
48.6981 533.0
48.765 500.0
48.8318 541.0
48.8987 525.0
48.9655 591.0
49.0324 631.0
49.0992 606.0
49.1661 627.0
49.2329 732.0
49.2997 670.0
49.3666 646.0
49.4334 647.0
49.5003 645.0
49.5671 583.0
49.634 518.0
49.7008 569.0
49.7677 569.0
49.8345 553.0
49.9013 543.0
49.9682 526.0
50.035 561.0
50.1019 538.0
50.1687 544.0
50.2356 527.0
50.3024 545.0
50.3693 545.0
50.4361 557.0
50.503 557.0
50.5698 567.0
50.6366 516.0
50.7035 532.0
50.7703 547.0
50.8372 511.0
50.904 573.0
50.9709 592.0
51.0377 623.0
51.1046 592.0
51.1714 571.0
51.2382 527.0
51.3051 573.0
51.3719 575.0
51.4388 611.0
51.5056 566.0
51.5725 559.0
51.6393 521.0
51.7062 517.0
51.773 571.0
51.8399 500.0
51.9067 518.0
51.9735 532.0
52.0404 481.0
52.1072 524.0
52.1741 556.0
52.2409 527.0
52.3078 508.0
52.3746 470.0
52.4415 505.0
52.5083 511.0
52.5751 498.0
52.642 512.0
52.7088 510.0
52.7757 505.0
52.8425 443.0
52.9094 537.0
52.9762 556.0
53.0431 502.0
53.1099 509.0
53.1768 476.0
53.2436 513.0
53.3104 504.0
53.3773 502.0
53.4441 513.0
53.511 516.0
53.5778 540.0
53.6447 524.0
53.7115 508.0
53.7784 573.0
53.8452 545.0
53.9121 563.0
53.9789 470.0
54.0457 522.0
54.1126 501.0
54.1794 540.0
54.2463 495.0
54.3131 503.0
54.38 443.0
54.4468 470.0
54.5137 488.0
54.5805 498.0
54.6473 457.0
54.7142 492.0
54.781 489.0
54.8479 498.0
54.9147 524.0
54.9816 533.0
55.0484 466.0
55.1153 505.0
55.1821 498.0
55.249 485.0
55.3158 536.0
55.3826 501.0
55.4495 508.0
55.5163 565.0
55.5832 516.0
55.65 556.0
55.7169 535.0
55.7837 570.0
55.8506 535.0
55.9174 588.0
55.9842 533.0
56.0511 520.0
56.1179 510.0
56.1848 534.0
56.2516 482.0
56.3185 507.0
56.3853 507.0
56.4522 533.0
56.519 500.0
56.5859 510.0
56.6527 508.0
56.7195 537.0
56.7864 520.0
56.8532 542.0
56.9201 531.0
56.9869 525.0
57.0538 555.0
57.1206 487.0
57.1875 474.0
57.2543 471.0
57.3212 457.0
57.388 470.0
57.4548 494.0
57.5217 489.0
57.5885 466.0
57.6554 436.0
57.7222 473.0
57.7891 467.0
57.8559 430.0
57.9228 423.0
57.9896 478.0
58.0564 445.0
58.1233 471.0
58.1901 447.0
58.257 476.0
58.3238 486.0
58.3907 451.0
58.4575 479.0
58.5244 561.0
58.5912 479.0
58.6581 545.0
58.7249 543.0
58.7917 467.0
58.8586 506.0
58.9254 467.0
58.9923 476.0
59.0591 478.0
59.126 472.0
59.1928 463.0
59.2597 482.0
59.3265 532.0
59.3933 506.0
59.4602 486.0
59.527 496.0
59.5939 467.0
59.6607 475.0
59.7276 511.0
59.7944 505.0
59.8613 505.0
59.9281 482.0
59.995 490.0
60.0618 506.0
60.1286 493.0
60.1955 489.0
60.2623 493.0
60.3292 473.0
60.396 472.0
60.4629 479.0
60.5297 453.0
60.5966 481.0
60.6634 486.0
60.7302 460.0
60.7971 457.0
60.8639 460.0
60.9308 494.0
60.9976 429.0
61.0645 451.0
61.1313 453.0
61.1982 424.0
61.265 461.0
61.3319 466.0
61.3987 482.0
61.4655 443.0
61.5324 438.0
61.5992 451.0
61.6661 413.0
61.7329 467.0
61.7998 461.0
61.8666 462.0
61.9335 462.0
62.0003 435.0
62.0672 455.0
62.134 433.0
62.2008 483.0
62.2677 456.0
62.3345 425.0
62.4014 415.0
62.4682 462.0
62.5351 419.0
62.6019 426.0
62.6688 461.0
62.7356 443.0
62.8024 428.0
62.8693 474.0
62.9361 428.0
63.003 447.0
63.0698 467.0
63.1367 441.0
63.2035 438.0
63.2704 471.0
63.3372 486.0
63.4041 455.0
63.4709 406.0
63.5377 501.0
63.6046 438.0
63.6714 470.0
63.7383 444.0
63.8051 461.0
63.872 438.0
63.9388 420.0
64.0057 479.0
64.0725 480.0
64.1393 461.0
64.2062 435.0
64.273 445.0
64.3399 391.0
64.4067 467.0
64.4736 385.0
64.5404 442.0
64.6073 457.0
64.6741 428.0
64.741 407.0
64.8078 450.0
64.8746 438.0
64.9415 454.0
65.0083 404.0
65.0752 477.0
65.142 456.0
65.2089 423.0
65.2757 482.0
65.3426 462.0
65.4094 457.0
65.4762 433.0
65.5431 420.0
65.6099 441.0
65.6768 481.0
65.7436 497.0
65.8105 488.0
65.8773 443.0
65.9442 439.0
66.011 439.0
66.0779 474.0
66.1447 443.0
66.2115 476.0
66.2784 451.0
66.3452 441.0
66.4121 450.0
66.4789 427.0
66.5458 466.0
66.6126 479.0
66.6795 407.0
66.7463 464.0
66.8132 535.0
66.88 478.0
66.9468 488.0
67.0137 470.0
67.0805 456.0
67.1474 434.0
67.2142 481.0
67.2811 501.0
67.3479 430.0
67.4148 466.0
67.4816 447.0
67.5484 440.0
67.6153 426.0
67.6821 426.0
67.749 454.0
67.8158 373.0
67.8827 456.0
67.9495 426.0
68.0164 444.0
68.0832 434.0
68.1501 447.0
68.2169 479.0
68.2837 453.0
68.3506 399.0
68.4174 450.0
68.4843 450.0
68.5511 395.0
68.618 398.0
68.6848 425.0
68.7517 386.0
68.8185 401.0
68.8853 433.0
68.9522 376.0
69.019 418.0
69.0859 406.0
69.1527 414.0
69.2196 418.0
69.2864 393.0
69.3533 387.0
69.4201 366.0
69.487 398.0
69.5538 396.0
69.6206 378.0
69.6875 385.0
69.7543 401.0
69.8212 419.0
69.888 427.0
69.9549 451.0
70.0217 404.0
70.0886 426.0
70.1554 395.0
70.2222 431.0
70.2891 383.0
70.3559 399.0
70.4228 383.0
70.4896 393.0
70.5565 384.0
70.6233 420.0
70.6902 393.0
70.757 394.0
70.8239 372.0
70.8907 367.0
70.9575 398.0
71.0244 387.0
71.0912 407.0
71.1581 373.0
71.2249 383.0
71.2918 400.0
71.3586 410.0
71.4255 357.0
71.4923 427.0
71.5592 375.0
71.626 413.0
71.6928 393.0
71.7597 383.0
71.8265 389.0
71.8934 391.0
71.9602 387.0
72.0271 383.0
72.0939 368.0
72.1608 386.0
72.2276 415.0
72.2944 393.0
72.3613 347.0
72.4281 378.0
72.495 371.0
72.5618 378.0
72.6287 366.0
72.6955 365.0
72.7624 373.0
72.8292 399.0
72.8961 333.0
72.9629 372.0
73.0297 402.0
73.0966 352.0
73.1634 371.0
73.2303 383.0
73.2971 383.0
73.364 365.0
73.4308 362.0
73.4977 368.0
73.5645 351.0
73.6313 362.0
73.6982 342.0
73.765 351.0
73.8319 367.0
73.8987 340.0
73.9656 376.0
74.0324 325.0
74.0993 317.0
74.1661 376.0
74.233 342.0
74.2998 361.0
74.3666 355.0
74.4335 361.0
74.5003 348.0
74.5672 373.0
74.634 365.0
74.7009 386.0
74.7677 335.0
74.8346 347.0
74.9014 344.0
74.9683 383.0
75.0351 358.0
75.1019 355.0
75.1688 340.0
75.2356 368.0
75.3025 347.0
75.3693 376.0
75.4362 362.0
75.503 360.0
75.5699 352.0
75.6367 335.0
75.7035 346.0
75.7704 363.0
75.8372 338.0
75.9041 365.0
75.9709 339.0
76.0378 358.0
76.1046 366.0
76.1715 342.0
76.2383 348.0
76.3052 394.0
76.372 345.0
76.4388 357.0
76.5057 357.0
76.5725 322.0
76.6394 345.0
76.7062 340.0
76.7731 358.0
76.8399 295.0
76.9068 340.0
76.9736 348.0
77.0404 311.0
77.1073 352.0
77.1741 360.0
77.241 322.0
77.3078 334.0
77.3747 347.0
77.4415 335.0
77.5084 356.0
77.5752 320.0
77.6421 341.0
77.7089 342.0
77.7757 331.0
77.8426 336.0
77.9094 293.0
77.9763 323.0
78.0431 303.0
78.11 295.0
78.1768 350.0
78.2437 349.0
78.3105 313.0
78.3773 326.0
78.4442 331.0
78.511 345.0
78.5779 332.0
78.6447 294.0
78.7116 328.0
78.7784 306.0
78.8453 332.0
78.9121 318.0
78.979 325.0
79.0458 285.0
79.1126 335.0
79.1795 302.0
79.2463 307.0
79.3132 347.0
79.38 322.0
79.4469 302.0
79.5137 285.0
79.5806 302.0
79.6474 308.0
79.7143 332.0
79.7811 284.0
79.8479 328.0
79.9148 311.0
79.9816 287.0
80.0485 268.0
80.1153 293.0
80.1822 269.0
80.249 323.0
80.3159 299.0
80.3827 310.0
80.4495 326.0
80.5164 308.0
80.5832 306.0
80.6501 279.0
80.7169 315.0
80.7838 297.0
80.8506 266.0
80.9175 282.0
80.9843 295.0
81.0512 294.0
81.118 301.0
81.1848 301.0
81.2517 310.0
81.3185 305.0
81.3854 264.0
81.4522 295.0
81.5191 271.0
81.5859 287.0
81.6528 267.0
81.7196 316.0
81.7864 306.0
81.8533 292.0
81.9201 280.0
81.987 280.0
82.0538 278.0
82.1207 295.0
82.1875 292.0
82.2544 231.0
82.3212 247.0
82.3881 268.0
82.4549 210.0
82.5217 250.0
82.5886 236.0
82.6554 276.0
82.7223 291.0
82.7891 279.0
82.856 248.0
82.9228 276.0
82.9897 242.0
83.0565 256.0
83.1066 237.0