File: code/XRD_Analysis/External Sources/Alex_SAPO/20220715_SAPO-34_CASALE_dried.xy
4.98146 1669.0
5.0483 1621.0
5.11515 1581.0
5.18199 1611.0
5.24884 1534.0
5.31568 1525.0
5.38253 1504.0
5.44937 1482.0
5.51622 1442.0
5.58306 1438.0
5.64991 1384.0
5.71675 1421.0
5.7836 1330.0
5.85044 1364.0
5.91729 1329.0
5.98413 1365.0
6.05098 1256.0
6.11782 1290.0
6.18467 1363.0
6.25151 1250.0
6.31836 1235.0
6.3852 1300.0
6.45205 1165.0
6.51889 1173.0
6.58574 1169.0
6.65258 1197.0
6.71943 1173.0
6.78627 1165.0
6.85312 1167.0
6.91996 1191.0
6.98681 1100.0
7.05365 1177.0
7.1205 1148.0
7.18734 1119.0
7.25419 1156.0
7.32103 1142.0
7.38788 1103.0
7.45472 1096.0
7.52157 1023.0
7.58841 1068.0
7.65526 965.0
7.7221 1011.0
7.78895 1063.0
7.85579 1059.0
7.92264 1097.0
7.98948 1023.0
8.05633 1042.0
8.12317 1043.0
8.19002 1068.0
8.25686 989.0
8.32371 956.0
8.39055 998.0
8.4574 1011.0
8.52424 948.0
8.59109 1042.0
8.65793 1010.0
8.72478 1017.0
8.79162 949.0
8.85847 995.0
8.92532 943.0
8.99216 1008.0
9.05901 1006.0
9.12585 1020.0
9.1927 1025.0
9.25954 1063.0
9.32639 1125.0
9.39323 1480.0
9.46008 2868.0
9.52692 5853.0
9.59377 3739.0
9.66061 1335.0
9.72746 1091.0
9.7943 1012.0
9.86115 1050.0
9.92799 951.0
9.99484 938.0
10.0617 958.0
10.1285 918.0
10.1954 893.0
10.2622 879.0
10.3291 833.0
10.3959 885.0
10.4628 887.0
10.5296 887.0
10.5964 830.0
10.6633 897.0
10.7301 815.0
10.797 834.0
10.8638 903.0
10.9307 877.0
10.9975 878.0
11.0644 871.0
11.1312 918.0
11.198 881.0
11.2649 826.0
11.3317 863.0
11.3986 863.0
11.4654 878.0
11.5323 849.0
11.5991 815.0
11.666 787.0
11.7328 849.0
11.7997 831.0
11.8665 836.0
11.9333 807.0
12.0002 880.0
12.067 869.0
12.1339 839.0
12.2007 849.0
12.2676 846.0
12.3344 867.0
12.4013 900.0
12.4681 881.0
12.5349 845.0
12.6018 789.0
12.6686 888.0
12.7355 906.0
12.8023 1005.0
12.8692 1278.0
12.936 1943.0
13.0029 2017.0
13.0697 1205.0
13.1366 979.0
13.2034 939.0
13.2702 888.0
13.3371 898.0
13.4039 859.0
13.4708 865.0
13.5376 798.0
13.6045 785.0
13.6713 808.0
13.7382 850.0
13.805 768.0
13.8719 790.0
13.9387 875.0
14.0055 966.0
14.0724 875.0
14.1392 830.0
14.2061 839.0
14.2729 867.0
14.3398 902.0
14.4066 819.0
14.4735 814.0
14.5403 801.0
14.6071 831.0
14.674 868.0
14.7408 830.0
14.8077 809.0
14.8745 839.0
14.9414 860.0
15.0082 852.0
15.0751 931.0
15.1419 851.0
15.2088 863.0
15.2756 846.0
15.3424 814.0
15.4093 894.0
15.4761 849.0
15.543 869.0
15.6098 892.0
15.6767 911.0
15.7435 927.0
15.8104 896.0
15.8772 1013.0
15.944 1019.0
16.0109 1272.0
16.0777 1871.0
16.1446 2039.0
16.2114 1371.0
16.2783 1160.0
16.3451 1028.0
16.412 1060.0
16.4788 1005.0
16.5457 1084.0
16.6125 991.0
16.6793 1033.0
16.7462 1080.0
16.813 1072.0
16.8799 1049.0
16.9467 1015.0
17.0136 1089.0
17.0804 1120.0
17.1473 1073.0
17.2141 1157.0
17.2809 1151.0
17.3478 1178.0
17.4146 1199.0
17.4815 1257.0
17.5483 1226.0
17.6152 1294.0
17.682 1429.0
17.7489 1810.0
17.8157 1954.0
17.8826 1734.0
17.9494 1482.0
18.0162 1320.0
18.0831 1298.0
18.1499 1266.0
18.2168 1322.0
18.2836 1252.0
18.3505 1256.0
18.4173 1362.0
18.4842 1377.0
18.551 1412.0
18.6179 1407.0
18.6847 1400.0
18.7515 1418.0
18.8184 1444.0
18.8852 1476.0
18.9521 1518.0
19.0189 1526.0
19.0858 1642.0
19.1526 1831.0
19.2195 1651.0
19.2863 1553.0
19.3531 1558.0
19.42 1571.0
19.4868 1700.0
19.5537 1657.0
19.6205 1684.0
19.6874 1664.0
19.7542 1772.0
19.8211 1779.0
19.8879 1798.0
19.9548 1875.0
20.0216 1932.0
20.0884 2033.0
20.1553 2026.0
20.2221 1931.0
20.289 2049.0
20.3558 2147.0
20.4227 2151.0
20.4895 2253.0
20.5564 2349.0
20.6232 3016.0
20.69 4212.0
20.7569 4929.0
20.8237 3763.0
20.8906 2846.0
20.9574 2519.0
21.0243 2390.0
21.0911 2358.0
21.158 2174.0
21.2248 2338.0
21.2917 2265.0
21.3585 2293.0
21.4253 2223.0
21.4922 2289.0
21.559 2282.0
21.6259 2320.0
21.6927 2234.0
21.7596 2213.0
21.8264 2288.0
21.8933 2265.0
21.9601 2273.0
22.0269 2392.0
22.0938 2327.0
22.1606 2443.0
22.2275 2267.0
22.2943 2354.0
22.3612 2303.0
22.428 2328.0
22.4949 2400.0
22.5617 2336.0
22.6286 2261.0
22.6954 2320.0
22.7622 2249.0
22.8291 2275.0
22.8959 2205.0
22.9628 2383.0
23.0296 2369.0
23.0965 2460.0
23.1633 2714.0
23.2302 2756.0
23.297 2528.0
23.3639 2237.0
23.4307 2239.0
23.4975 2124.0
23.5644 2119.0
23.6312 2115.0
23.6981 2152.0
23.7649 2065.0
23.8318 2026.0
23.8986 2131.0
23.9655 2023.0
24.0323 2070.0
24.0991 2105.0
24.166 1928.0
24.2328 1983.0
24.2997 2069.0
24.3665 2002.0
24.4334 1993.0
24.5002 1968.0
24.5671 2040.0
24.6339 1953.0
24.7008 1990.0
24.7676 2054.0
24.8344 2176.0
24.9013 2462.0
24.9681 2632.0
25.035 2614.0
25.1018 2280.0
25.1687 2086.0
25.2355 1890.0
25.3024 1884.0
25.3692 1892.0
25.436 1693.0
25.5029 1825.0
25.5697 1837.0
25.6366 1806.0
25.7034 1763.0
25.7703 1810.0
25.8371 1723.0
25.904 1841.0
25.9708 1953.0
26.0377 2256.0
26.1045 2456.0
26.1713 2270.0
26.2382 2026.0
26.305 1718.0
26.3719 1636.0
26.4387 1619.0
26.5056 1664.0
26.5724 1625.0
26.6393 1518.0
26.7061 1569.0
26.773 1507.0
26.8398 1580.0
26.9066 1460.0
26.9735 1442.0
27.0403 1511.0
27.1072 1520.0
27.174 1495.0
27.2409 1444.0
27.3077 1363.0
27.3746 1398.0
27.4414 1414.0
27.5082 1403.0
27.5751 1528.0
27.6419 1380.0
27.7088 1511.0
27.7756 1475.0
27.8425 1588.0
27.9093 1548.0
27.9762 1508.0
28.043 1413.0
28.1099 1491.0
28.1767 1469.0
28.2435 1585.0
28.3104 1525.0
28.3772 1500.0
28.4441 1404.0
28.5109 1379.0
28.5778 1388.0
28.6446 1328.0
28.7115 1346.0
28.7783 1325.0
28.8451 1220.0
28.912 1205.0
28.9788 1226.0
29.0457 1285.0
29.1125 1238.0
29.1794 1251.0
29.2462 1319.0
29.3131 1215.0
29.3799 1316.0
29.4468 1253.0
29.5136 1281.0
29.5804 1203.0
29.6473 1239.0
29.7141 1320.0
29.781 1344.0
29.8478 1286.0
29.9147 1324.0
29.9815 1208.0
30.0484 1291.0
30.1152 1288.0
30.182 1294.0
30.2489 1349.0
30.3157 1292.0
30.3826 1383.0
30.4494 1429.0
30.5163 1349.0
30.5831 1523.0
30.65 1675.0
30.7168 2166.0
30.7837 2861.0
30.8505 3033.0
30.9173 2884.0
30.9842 2304.0
31.051 2033.0
31.1179 1888.0
31.1847 2121.0
31.2516 1980.0
31.3184 1740.0
31.3853 1485.0
31.4521 1375.0
31.519 1277.0
31.5858 1247.0
31.6526 1262.0
31.7195 1224.0
31.7863 1263.0
31.8532 1242.0
31.92 1126.0
31.9869 1134.0
32.0537 1057.0
32.1206 1068.0
32.1874 1113.0
32.2542 1059.0
32.3211 1055.0
32.3879 1027.0
32.4548 1097.0
32.5216 1003.0
32.5885 1060.0
32.6553 993.0
32.7222 1090.0
32.789 947.0
32.8559 980.0
32.9227 957.0
32.9895 992.0
33.0564 934.0
33.1232 994.0
33.1901 958.0
33.2569 1001.0
33.3238 884.0
33.3906 948.0
33.4575 995.0
33.5243 977.0
33.5911 1081.0
33.658 1103.0
33.7248 995.0
33.7917 991.0
33.8585 987.0
33.9254 929.0
33.9922 867.0
34.0591 913.0
34.1259 940.0
34.1928 888.0
34.2596 885.0
34.3264 877.0
34.3933 888.0
34.4601 922.0
34.527 912.0
34.5938 972.0
34.6607 996.0
34.7275 1097.0
34.7944 1135.0
34.8612 1070.0
34.928 979.0
34.9949 963.0
35.0617 946.0
35.1286 973.0
35.1954 989.0
35.2623 864.0
35.3291 863.0
35.396 867.0
35.4628 879.0
35.5297 813.0
35.5965 833.0
35.6633 852.0
35.7302 805.0
35.797 757.0
35.8639 860.0
35.9307 840.0
35.9976 850.0
36.0644 915.0
36.1313 886.0
36.1981 871.0
36.265 889.0
36.3318 878.0
36.3986 818.0
36.4655 834.0
36.5323 807.0
36.5992 886.0
36.666 803.0
36.7329 809.0
36.7997 817.0
36.8666 818.0
36.9334 824.0
37.0002 756.0
37.0671 829.0
37.1339 760.0
37.2008 832.0
37.2676 792.0
37.3345 768.0
37.4013 717.0
37.4682 834.0
37.535 776.0
37.6019 767.0
37.6687 795.0
37.7355 709.0
37.8024 747.0
37.8692 755.0
37.9361 761.0
38.0029 772.0
38.0698 729.0
38.1366 801.0
38.2035 754.0
38.2703 708.0
38.3371 728.0
38.404 752.0
38.4708 767.0
38.5377 685.0
38.6045 719.0
38.6714 684.0
38.7382 725.0
38.8051 697.0
38.8719 744.0
38.9388 697.0
39.0056 709.0
39.0724 719.0
39.1393 727.0
39.2061 690.0
39.273 662.0
39.3398 757.0
39.4067 716.0
39.4735 722.0
39.5404 676.0
39.6072 701.0
39.6741 720.0
39.7409 699.0
39.8077 681.0
39.8746 735.0
39.9414 721.0
40.0083 706.0
40.0751 719.0
40.142 713.0
40.2088 683.0
40.2757 696.0
40.3425 626.0
40.4093 672.0
40.4762 620.0
40.543 590.0
40.6099 617.0
40.6767 636.0
40.7436 586.0
40.8104 663.0
40.8773 633.0
40.9441 679.0
41.011 639.0
41.0778 647.0
41.1446 688.0
41.2115 635.0
41.2783 635.0
41.3452 594.0
41.412 626.0
41.4789 581.0
41.5457 665.0
41.6126 620.0
41.6794 650.0
41.7462 611.0
41.8131 675.0
41.8799 578.0
41.9468 651.0
42.0136 623.0
42.0805 622.0
42.1473 696.0
42.2142 638.0
42.281 575.0
42.3479 575.0
42.4147 609.0
42.4815 659.0
42.5484 652.0
42.6152 645.0
42.6821 652.0
42.7489 652.0
42.8158 672.0
42.8826 678.0
42.9495 645.0
43.0163 676.0
43.0831 676.0
43.15 637.0
43.2168 634.0
43.2837 616.0
43.3505 658.0
43.4174 682.0
43.4842 692.0
43.5511 678.0
43.6179 707.0
43.6848 693.0
43.7516 705.0
43.8184 721.0
43.8853 660.0
43.9521 635.0
44.019 662.0
44.0858 678.0
44.1527 661.0
44.2195 598.0
44.2864 633.0
44.3532 585.0
44.4201 649.0
44.4869 642.0
44.5537 621.0
44.6206 612.0
44.6874 597.0
44.7543 643.0
44.8211 620.0
44.888 665.0
44.9548 664.0
45.0217 703.0
45.0885 597.0
45.1553 653.0
45.2222 636.0
45.289 644.0
45.3559 689.0
45.4227 629.0
45.4896 658.0
45.5564 584.0
45.6233 694.0
45.6901 650.0
45.757 708.0
45.8238 620.0
45.8906 678.0
45.9575 665.0
46.0243 693.0
46.0912 643.0
46.158 644.0
46.2249 689.0
46.2917 649.0
46.3586 652.0
46.4254 674.0
46.4922 630.0
46.5591 649.0
46.6259 596.0
46.6928 635.0
46.7596 610.0
46.8265 617.0
46.8933 630.0
46.9602 620.0
47.027 643.0
47.0939 629.0
47.1607 610.0
47.2275 649.0
47.2944 649.0
47.3612 627.0
47.4281 535.0
47.4949 609.0
47.5618 603.0
47.6286 620.0
47.6955 600.0
47.7623 616.0
47.8291 610.0
47.896 571.0
47.9628 660.0
48.0297 627.0
48.0965 643.0
48.1634 639.0
48.2302 589.0
48.2971 598.0
48.3639 597.0
48.4308 612.0
48.4976 566.0
48.5644 600.0
48.6313 584.0
48.6981 559.0
48.765 598.0
48.8318 587.0
48.8987 634.0
48.9655 631.0
49.0324 651.0
49.0992 704.0
49.1661 700.0
49.2329 726.0
49.2997 681.0
49.3666 669.0
49.4334 642.0
49.5003 620.0
49.5671 604.0
49.634 649.0
49.7008 613.0
49.7677 594.0
49.8345 563.0
49.9013 599.0
49.9682 534.0
50.035 540.0
50.1019 560.0
50.1687 576.0
50.2356 582.0
50.3024 574.0
50.3693 576.0
50.4361 654.0
50.503 571.0
50.5698 561.0
50.6366 598.0
50.7035 632.0
50.7703 617.0
50.8372 618.0
50.904 677.0
50.9709 728.0
51.0377 719.0
51.1046 674.0
51.1714 629.0
51.2382 630.0
51.3051 601.0
51.3719 611.0
51.4388 575.0
51.5056 580.0
51.5725 587.0
51.6393 550.0
51.7062 599.0
51.773 520.0
51.8399 542.0
51.9067 609.0
51.9735 578.0
52.0404 545.0
52.1072 619.0
52.1741 572.0
52.2409 553.0
52.3078 514.0
52.3746 581.0
52.4415 541.0
52.5083 558.0
52.5751 573.0
52.642 516.0
52.7088 514.0
52.7757 570.0
52.8425 551.0
52.9094 548.0
52.9762 559.0
53.0431 549.0
53.1099 575.0
53.1768 509.0
53.2436 544.0
53.3104 537.0
53.3773 566.0
53.4441 581.0
53.511 556.0
53.5778 570.0
53.6447 585.0
53.7115 583.0
53.7784 598.0
53.8452 579.0
53.9121 584.0
53.9789 560.0
54.0457 543.0
54.1126 540.0
54.1794 561.0
54.2463 518.0
54.3131 560.0
54.38 535.0
54.4468 545.0
54.5137 536.0
54.5805 582.0
54.6473 588.0
54.7142 554.0
54.781 583.0
54.8479 563.0
54.9147 535.0
54.9816 509.0
55.0484 552.0
55.1153 568.0
55.1821 533.0
55.249 549.0
55.3158 545.0
55.3826 552.0
55.4495 594.0
55.5163 569.0
55.5832 538.0
55.65 539.0
55.7169 566.0
55.7837 565.0
55.8506 529.0
55.9174 571.0
55.9842 540.0
56.0511 539.0
56.1179 531.0
56.1848 584.0
56.2516 564.0
56.3185 576.0
56.3853 574.0
56.4522 594.0
56.519 590.0
56.5859 561.0
56.6527 564.0
56.7195 576.0
56.7864 565.0
56.8532 513.0
56.9201 532.0
56.9869 545.0
57.0538 524.0
57.1206 540.0
57.1875 513.0
57.2543 541.0
57.3212 522.0
57.388 556.0
57.4548 519.0
57.5217 556.0
57.5885 537.0
57.6554 533.0
57.7222 486.0
57.7891 533.0
57.8559 557.0
57.9228 553.0
57.9896 496.0
58.0564 560.0
58.1233 505.0
58.1901 490.0
58.257 521.0
58.3238 485.0
58.3907 536.0
58.4575 542.0
58.5244 526.0
58.5912 516.0
58.6581 541.0
58.7249 503.0
58.7917 464.0
58.8586 544.0
58.9254 526.0
58.9923 538.0
59.0591 500.0
59.126 481.0
59.1928 545.0
59.2597 525.0
59.3265 549.0
59.3933 501.0
59.4602 512.0
59.527 566.0
59.5939 505.0
59.6607 539.0
59.7276 540.0
59.7944 545.0
59.8613 567.0
59.9281 585.0
59.995 566.0
60.0618 585.0
60.1286 568.0
60.1955 547.0
60.2623 551.0
60.3292 524.0
60.396 570.0
60.4629 512.0
60.5297 537.0
60.5966 517.0
60.6634 553.0
60.7302 504.0
60.7971 552.0
60.8639 578.0
60.9308 556.0
60.9976 545.0
61.0645 532.0
61.1313 524.0
61.1982 535.0
61.265 521.0
61.3319 529.0
61.3987 557.0
61.4655 526.0
61.5324 535.0
61.5992 547.0
61.6661 602.0
61.7329 582.0
61.7998 594.0
61.8666 582.0
61.9335 564.0
62.0003 553.0
62.0672 543.0
62.134 536.0
62.2008 524.0
62.2677 533.0
62.3345 543.0
62.4014 521.0
62.4682 541.0
62.5351 527.0
62.6019 533.0
62.6688 524.0
62.7356 524.0
62.8024 502.0
62.8693 555.0
62.9361 564.0
63.003 523.0
63.0698 509.0
63.1367 576.0
63.2035 526.0
63.2704 533.0
63.3372 567.0
63.4041 533.0
63.4709 528.0
63.5377 532.0
63.6046 575.0
63.6714 518.0
63.7383 523.0
63.8051 536.0
63.872 519.0
63.9388 560.0
64.0057 556.0
64.0725 493.0
64.1393 445.0
64.2062 507.0
64.273 518.0
64.3399 538.0
64.4067 521.0
64.4736 509.0
64.5404 482.0
64.6073 505.0
64.6741 524.0
64.741 557.0
64.8078 555.0
64.8746 496.0
64.9415 522.0
65.0083 535.0
65.0752 496.0
65.142 527.0
65.2089 492.0
65.2757 578.0
65.3426 525.0
65.4094 513.0
65.4762 560.0
65.5431 496.0
65.6099 522.0
65.6768 547.0
65.7436 556.0
65.8105 575.0
65.8773 525.0
65.9442 525.0
66.011 567.0
66.0779 564.0
66.1447 528.0
66.2115 589.0
66.2784 488.0
66.3452 616.0
66.4121 559.0
66.4789 633.0
66.5458 595.0
66.6126 601.0
66.6795 648.0
66.7463 578.0
66.8132 627.0
66.88 639.0
66.9468 646.0
67.0137 614.0
67.0805 604.0
67.1474 586.0
67.2142 569.0
67.2811 629.0
67.3479 568.0
67.4148 568.0
67.4816 545.0
67.5484 524.0
67.6153 520.0
67.6821 539.0
67.749 511.0
67.8158 560.0
67.8827 541.0
67.9495 548.0
68.0164 487.0
68.0832 512.0
68.1501 473.0
68.2169 489.0
68.2837 519.0
68.3506 502.0
68.4174 531.0
68.4843 510.0
68.5511 504.0
68.618 482.0
68.6848 495.0
68.7517 516.0
68.8185 493.0
68.8853 518.0
68.9522 472.0
69.019 464.0
69.0859 496.0
69.1527 479.0
69.2196 476.0
69.2864 490.0
69.3533 525.0
69.4201 518.0
69.487 482.0
69.5538 486.0
69.6206 462.0
69.6875 472.0
69.7543 475.0
69.8212 516.0
69.888 509.0
69.9549 479.0
70.0217 500.0
70.0886 488.0
70.1554 487.0
70.2222 502.0
70.2891 464.0
70.3559 466.0
70.4228 482.0
70.4896 443.0
70.5565 475.0
70.6233 510.0
70.6902 511.0
70.757 475.0
70.8239 501.0
70.8907 480.0
70.9575 472.0
71.0244 466.0
71.0912 507.0
71.1581 517.0
71.2249 474.0
71.2918 456.0
71.3586 457.0
71.4255 459.0
71.4923 475.0
71.5592 459.0
71.626 498.0
71.6928 465.0
71.7597 472.0
71.8265 446.0
71.8934 473.0
71.9602 477.0
72.0271 450.0
72.0939 434.0
72.1608 450.0
72.2276 478.0
72.2944 483.0
72.3613 480.0
72.4281 457.0
72.495 438.0
72.5618 451.0
72.6287 433.0
72.6955 453.0
72.7624 462.0
72.8292 463.0
72.8961 455.0
72.9629 459.0
73.0297 457.0
73.0966 456.0
73.1634 443.0
73.2303 463.0
73.2971 467.0
73.364 487.0
73.4308 471.0
73.4977 473.0
73.5645 443.0
73.6313 464.0
73.6982 435.0
73.765 448.0
73.8319 430.0
73.8987 462.0
73.9656 443.0
74.0324 422.0
74.0993 425.0
74.1661 422.0
74.233 423.0
74.2998 461.0
74.3666 445.0
74.4335 457.0
74.5003 450.0
74.5672 419.0
74.634 396.0
74.7009 441.0
74.7677 438.0
74.8346 444.0
74.9014 422.0
74.9683 446.0
75.0351 432.0
75.1019 460.0
75.1688 456.0
75.2356 432.0
75.3025 438.0
75.3693 424.0
75.4362 462.0
75.503 435.0
75.5699 470.0
75.6367 472.0
75.7035 430.0
75.7704 458.0
75.8372 429.0
75.9041 445.0
75.9709 418.0
76.0378 461.0
76.1046 457.0
76.1715 466.0
76.2383 471.0
76.3052 424.0
76.372 454.0
76.4388 445.0
76.5057 465.0
76.5725 441.0
76.6394 419.0
76.7062 451.0
76.7731 463.0
76.8399 451.0
76.9068 420.0
76.9736 442.0
77.0404 459.0
77.1073 441.0
77.1741 417.0
77.241 461.0
77.3078 434.0
77.3747 423.0
77.4415 432.0
77.5084 419.0
77.5752 443.0
77.6421 433.0
77.7089 425.0
77.7757 422.0
77.8426 423.0
77.9094 447.0
77.9763 464.0
78.0431 429.0
78.11 395.0
78.1768 402.0
78.2437 419.0
78.3105 387.0
78.3773 475.0
78.4442 398.0
78.511 433.0
78.5779 457.0
78.6447 481.0
78.7116 416.0
78.7784 401.0
78.8453 410.0
78.9121 436.0
78.979 388.0
79.0458 423.0
79.1126 404.0
79.1795 416.0
79.2463 448.0
79.3132 428.0
79.38 433.0
79.4469 428.0
79.5137 402.0
79.5806 411.0
79.6474 400.0
79.7143 429.0
79.7811 394.0
79.8479 453.0
79.9148 416.0
79.9816 466.0
80.0485 419.0
80.1153 430.0
80.1822 401.0
80.249 453.0
80.3159 398.0
80.3827 404.0
80.4495 384.0
80.5164 383.0
80.5832 397.0
80.6501 415.0
80.7169 419.0
80.7838 424.0
80.8506 358.0
80.9175 383.0
80.9843 407.0
81.0512 381.0
81.118 366.0
81.1848 416.0
81.2517 383.0
81.3185 413.0
81.3854 410.0
81.4522 377.0
81.5191 402.0
81.5859 403.0
81.6528 402.0
81.7196 388.0
81.7864 383.0
81.8533 402.0
81.9201 386.0
81.987 413.0
82.0538 418.0
82.1207 382.0
82.1875 404.0
82.2544 370.0
82.3212 404.0
82.3881 348.0
82.4549 381.0
82.5217 366.0
82.5886 354.0
82.6554 397.0
82.7223 363.0
82.7891 360.0
82.856 378.0
82.9228 375.0
82.9897 365.0
83.0565 371.0
83.1233 387.0
83.1902 292.0
83.257 330.0
83.3239 355.0
83.3907 332.0
83.4576 354.0
83.5244 376.0
83.5913 337.0
83.6581 337.0
83.725 340.0
83.7918 355.0
83.8586 348.0
83.9255 352.0
83.9923 318.0
84.0592 354.0
84.126 335.0
84.1929 338.0
84.2597 344.0
84.3266 345.0
84.3934 339.0
84.4603 323.0
84.5271 344.0
84.5939 324.0
84.6608 318.0
84.7276 319.0
84.7945 351.0
84.8613 306.0
84.9282 310.0
84.995 351.0
85.0619 326.0
85.1287 332.0
85.1955 325.0
85.2624 339.0
85.3292 305.0
85.3961 317.0
85.4629 300.0
85.5298 297.0
85.5966 315.0
85.6635 295.0
85.7303 307.0
85.7972 330.0
85.864 330.0
85.9308 295.0
85.9977 266.0
86.0645 319.0
86.1314 310.0
86.1982 289.0
86.2651 274.0
86.3319 320.0
86.3988 305.0
86.4656 291.0
86.5324 310.0
86.5993 316.0
86.6661 321.0
86.733 293.0
86.7998 323.0
86.8667 282.0
86.9335 289.0
87.0004 272.0
87.0672 288.0
87.1341 284.0
87.2009 314.0
87.2677 309.0
87.3346 336.0
87.4014 305.0
87.4683 267.0
87.5351 289.0
87.602 271.0
87.6688 294.0
87.7357 266.0
87.8025 277.0
87.8693 271.0
87.9362 323.0
88.003 305.0
88.0699 291.0
88.1367 275.0
88.2036 306.0
88.2704 279.0
88.3373 278.0
88.4041 301.0
88.471 288.0
88.5378 279.0
88.6046 341.0
88.6715 263.0
88.7383 271.0
88.8052 286.0
88.872 276.0
88.9389 290.0
89.0057 268.0
89.0726 290.0
89.1394 306.0
89.2063 290.0
89.2731 280.0
89.3399 263.0
89.4068 248.0
89.4736 290.0
89.5405 269.0
89.6073 259.0
89.6742 251.0
89.741 258.0
89.8079 260.0
89.8747 282.0
89.9415 266.0