File: code/XRD_Analysis/External Sources/Alex_SAPO/20221208_SAPO-18_221202_calc550C.xy
4.98146 1522.0
5.0483 1535.0
5.11515 1520.0
5.18199 1390.0
5.24884 1454.0
5.31568 1333.0
5.38253 1356.0
5.44937 1360.0
5.51622 1269.0
5.58306 1329.0
5.64991 1281.0
5.71675 1315.0
5.7836 1261.0
5.85044 1242.0
5.91729 1294.0
5.98413 1239.0
6.05098 1221.0
6.11782 1228.0
6.18467 1185.0
6.25151 1175.0
6.31836 1112.0
6.3852 1209.0
6.45205 1116.0
6.51889 1157.0
6.58574 1134.0
6.65258 1144.0
6.71943 1069.0
6.78627 1050.0
6.85312 1128.0
6.91996 1073.0
6.98681 1007.0
7.05365 993.0
7.1205 1057.0
7.18734 1036.0
7.25419 1037.0
7.32103 1003.0
7.38788 943.0
7.45472 972.0
7.52157 994.0
7.58841 880.0
7.65526 1051.0
7.7221 972.0
7.78895 967.0
7.85579 950.0
7.92264 1003.0
7.98948 959.0
8.05633 964.0
8.12317 904.0
8.19002 956.0
8.25686 946.0
8.32371 888.0
8.39055 904.0
8.4574 919.0
8.52424 992.0
8.59109 898.0
8.65793 938.0
8.72478 897.0
8.79162 951.0
8.85847 985.0
8.92532 988.0
8.99216 1045.0
9.05901 1074.0
9.12585 1267.0
9.1927 1391.0
9.25954 1891.0
9.32639 2819.0
9.39323 5034.0
9.46008 9937.0
9.52692 11610.0
9.59377 7840.0
9.66061 4645.0
9.72746 2609.0
9.7943 1708.0
9.86115 1356.0
9.92799 1187.0
9.99484 1106.0
10.0617 1056.0
10.1285 1018.0
10.1954 1003.0
10.2622 1031.0
10.3291 1062.0
10.3959 1185.0
10.4628 1444.0
10.5296 1871.0
10.5964 2333.0
10.6633 2243.0
10.7301 1857.0
10.797 1328.0
10.8638 1172.0
10.9307 988.0
10.9975 891.0
11.0644 850.0
11.1312 861.0
11.198 779.0
11.2649 791.0
11.3317 762.0
11.3986 768.0
11.4654 725.0
11.5323 703.0
11.5991 773.0
11.666 757.0
11.7328 668.0
11.7997 703.0
11.8665 738.0
11.9333 731.0
12.0002 725.0
12.067 686.0
12.1339 719.0
12.2007 692.0
12.2676 716.0
12.3344 716.0
12.4013 740.0
12.4681 755.0
12.5349 727.0
12.6018 793.0
12.6686 981.0
12.7355 1102.0
12.8023 1652.0
12.8692 2476.0
12.936 2549.0
13.0029 1661.0
13.0697 1223.0
13.1366 942.0
13.2034 797.0
13.2702 837.0
13.3371 842.0
13.4039 1071.0
13.4708 1321.0
13.5376 1352.0
13.6045 1107.0
13.6713 961.0
13.7382 832.0
13.805 757.0
13.8719 771.0
13.9387 849.0
14.0055 935.0
14.0724 734.0
14.1392 745.0
14.2061 664.0
14.2729 650.0
14.3398 672.0
14.4066 628.0
14.4735 653.0
14.5403 673.0
14.6071 712.0
14.674 725.0
14.7408 726.0
14.8077 686.0
14.8745 664.0
14.9414 657.0
15.0082 633.0
15.0751 677.0
15.1419 657.0
15.2088 686.0
15.2756 695.0
15.3424 657.0
15.4093 682.0
15.4761 670.0
15.543 724.0
15.6098 741.0
15.6767 714.0
15.7435 755.0
15.8104 832.0
15.8772 986.0
15.944 1331.0
16.0109 1698.0
16.0777 2227.0
16.1446 2189.0
16.2114 1810.0
16.2783 1386.0
16.3451 1130.0
16.412 992.0
16.4788 965.0
16.5457 919.0
16.6125 993.0
16.6793 1034.0
16.7462 1250.0
16.813 1625.0
16.8799 2186.0
16.9467 3288.0
17.0136 3592.0
17.0804 2969.0
17.1473 2480.0
17.2141 2483.0
17.2809 2363.0
17.3478 2192.0
17.4146 1840.0
17.4815 1628.0
17.5483 1394.0
17.6152 1148.0
17.682 1090.0
17.7489 993.0
17.8157 1001.0
17.8826 847.0
17.9494 911.0
18.0162 822.0
18.0831 868.0
18.1499 831.0
18.2168 842.0
18.2836 791.0
18.3505 819.0
18.4173 833.0
18.4842 784.0
18.551 792.0
18.6179 830.0
18.6847 798.0
18.7515 817.0
18.8184 835.0
18.8852 934.0
18.9521 941.0
19.0189 1285.0
19.0858 1502.0
19.1526 1335.0
19.2195 1152.0
19.2863 1086.0
19.3531 1017.0
19.42 1019.0
19.4868 1000.0
19.5537 1105.0
19.6205 1290.0
19.6874 1526.0
19.7542 1367.0
19.8211 1242.0
19.8879 1170.0
19.9548 1282.0
20.0216 1419.0
20.0884 1538.0
20.1553 1647.0
20.2221 1534.0
20.289 1417.0
20.3558 1322.0
20.4227 1345.0
20.4895 1595.0
20.5564 2042.0
20.6232 2957.0
20.69 3245.0
20.7569 2624.0
20.8237 1865.0
20.8906 1512.0
20.9574 1318.0
21.0243 1366.0
21.0911 1487.0
21.158 1625.0
21.2248 1986.0
21.2917 2195.0
21.3585 2419.0
21.4253 2720.0
21.4922 2731.0
21.559 2328.0
21.6259 1730.0
21.6927 1473.0
21.7596 1157.0
21.8264 1106.0
21.8933 1041.0
21.9601 1084.0
22.0269 1121.0
22.0938 1056.0
22.1606 1033.0
22.2275 1007.0
22.2943 1070.0
22.3612 1097.0
22.428 1172.0
22.4949 1215.0
22.5617 1245.0
22.6286 1303.0
22.6954 1194.0
22.7622 1187.0
22.8291 1126.0
22.8959 1153.0
22.9628 1165.0
23.0296 1215.0
23.0965 1319.0
23.1633 1529.0
23.2302 1613.0
23.297 1490.0
23.3639 1343.0
23.4307 1347.0
23.4975 1333.0
23.5644 1373.0
23.6312 1474.0
23.6981 1650.0
23.7649 1895.0
23.8318 2471.0
23.8986 3043.0
23.9655 3510.0
24.0323 3581.0
24.0991 3538.0
24.166 2937.0
24.2328 2302.0
24.2997 1961.0
24.3665 1627.0
24.4334 1562.0
24.5002 1448.0
24.5671 1325.0
24.6339 1356.0
24.7008 1301.0
24.7676 1316.0
24.8344 1276.0
24.9013 1248.0
24.9681 1309.0
25.035 1310.0
25.1018 1288.0
25.1687 1320.0
25.2355 1484.0
25.3024 1495.0
25.3692 1463.0
25.436 1535.0
25.5029 1381.0
25.5697 1412.0
25.6366 1515.0
25.7034 1526.0
25.7703 1625.0
25.8371 1628.0
25.904 2072.0
25.9708 2344.0
26.0377 2510.0
26.1045 2263.0
26.1713 2073.0
26.2382 2110.0
26.305 2120.0
26.3719 2396.0
26.4387 2497.0
26.5056 2332.0
26.5724 2028.0
26.6393 1834.0
26.7061 1443.0
26.773 1376.0
26.8398 1281.0
26.9066 1245.0
26.9735 1230.0
27.0403 1285.0
27.1072 1266.0
27.174 1239.0
27.2409 1318.0
27.3077 1329.0
27.3746 1323.0
27.4414 1262.0
27.5082 1336.0
27.5751 1353.0
27.6419 1431.0
27.7088 1542.0
27.7756 1598.0
27.8425 1817.0
27.9093 2022.0
27.9762 2073.0
28.043 2135.0
28.1099 2144.0
28.1767 2108.0
28.2435 1952.0
28.3104 1829.0
28.3772 1501.0
28.4441 1457.0
28.5109 1459.0
28.5778 1377.0
28.6446 1319.0
28.7115 1283.0
28.7783 1284.0
28.8451 1198.0
28.912 1260.0
28.9788 1219.0
29.0457 1199.0
29.1125 1166.0
29.1794 1166.0
29.2462 1237.0
29.3131 1298.0
29.3799 1299.0
29.4468 1341.0
29.5136 1426.0
29.5804 1532.0
29.6473 1579.0
29.7141 1628.0
29.781 1579.0
29.8478 1547.0
29.9147 1696.0
29.9815 1784.0
30.0484 1940.0
30.1152 1985.0
30.182 1837.0
30.2489 1770.0
30.3157 1746.0
30.3826 1756.0
30.4494 1853.0
30.5163 1862.0
30.5831 1987.0
30.65 2104.0
30.7168 2037.0
30.7837 2031.0
30.8505 2111.0
30.9173 2177.0
30.9842 2331.0
31.051 2611.0
31.1179 3128.0
31.1847 3493.0
31.2516 3458.0
31.3184 3102.0
31.3853 2725.0
31.4521 2237.0
31.519 1948.0
31.5858 1628.0
31.6526 1583.0
31.7195 1617.0
31.7863 1614.0
31.8532 1624.0
31.92 1528.0
31.9869 1472.0
32.0537 1541.0
32.1206 1392.0
32.1874 1522.0
32.2542 1651.0
32.3211 1830.0
32.3879 1729.0
32.4548 1753.0
32.5216 1758.0
32.5885 1644.0
32.6553 1615.0
32.7222 1449.0
32.789 1643.0
32.8559 1585.0
32.9227 1664.0
32.9895 1552.0
33.0564 1579.0
33.1232 1559.0
33.1901 1377.0
33.2569 1297.0
33.3238 1210.0
33.3906 1106.0
33.4575 1037.0
33.5243 946.0
33.5911 994.0
33.658 988.0
33.7248 960.0
33.7917 1036.0
33.8585 955.0
33.9254 946.0
33.9922 881.0
34.0591 821.0
34.1259 824.0
34.1928 806.0
34.2596 788.0
34.3264 829.0
34.3933 892.0
34.4601 902.0
34.527 880.0
34.5938 797.0
34.6607 870.0
34.7275 829.0
34.7944 823.0
34.8612 822.0
34.928 853.0
34.9949 912.0
35.0617 826.0
35.1286 806.0
35.1954 778.0
35.2623 753.0
35.3291 754.0
35.396 800.0
35.4628 724.0
35.5297 770.0
35.5965 781.0
35.6633 755.0
35.7302 742.0
35.797 767.0
35.8639 742.0
35.9307 797.0
35.9976 766.0
36.0644 786.0
36.1313 801.0
36.1981 767.0
36.265 788.0
36.3318 786.0
36.3986 790.0
36.4655 775.0
36.5323 806.0
36.5992 839.0
36.666 740.0
36.7329 709.0
36.7997 709.0
36.8666 670.0
36.9334 646.0
37.0002 638.0
37.0671 646.0
37.1339 599.0
37.2008 673.0
37.2676 666.0
37.3345 587.0
37.4013 652.0
37.4682 564.0
37.535 607.0
37.6019 627.0
37.6687 641.0
37.7355 609.0
37.8024 601.0
37.8692 614.0
37.9361 614.0
38.0029 612.0
38.0698 596.0
38.1366 600.0
38.2035 636.0
38.2703 563.0
38.3371 618.0
38.404 587.0
38.4708 592.0
38.5377 600.0
38.6045 571.0
38.6714 587.0
38.7382 601.0
38.8051 594.0
38.8719 588.0
38.9388 616.0
39.0056 642.0
39.0724 609.0
39.1393 657.0
39.2061 663.0
39.273 642.0
39.3398 657.0
39.4067 713.0
39.4735 637.0
39.5404 661.0
39.6072 692.0
39.6741 666.0
39.7409 619.0
39.8077 670.0
39.8746 610.0
39.9414 635.0
40.0083 612.0
40.0751 589.0
40.142 647.0
40.2088 609.0
40.2757 585.0
40.3425 598.0
40.4093 614.0
40.4762 584.0
40.543 647.0
40.6099 598.0
40.6767 600.0
40.7436 603.0
40.8104 563.0
40.8773 619.0
40.9441 651.0
41.011 638.0
41.0778 626.0
41.1446 590.0
41.2115 615.0
41.2783 633.0
41.3452 657.0
41.412 665.0
41.4789 672.0
41.5457 660.0
41.6126 630.0
41.6794 623.0
41.7462 647.0
41.8131 692.0
41.8799 631.0
41.9468 617.0
42.0136 627.0
42.0805 586.0
42.1473 612.0
42.2142 573.0
42.281 587.0
42.3479 582.0
42.4147 572.0
42.4815 563.0
42.5484 574.0
42.6152 587.0
42.6821 602.0
42.7489 599.0
42.8158 549.0
42.8826 583.0
42.9495 635.0
43.0163 555.0
43.0831 599.0
43.15 620.0
43.2168 675.0
43.2837 652.0
43.3505 642.0
43.4174 567.0
43.4842 672.0
43.5511 648.0
43.6179 672.0
43.6848 634.0
43.7516 580.0
43.8184 572.0
43.8853 623.0
43.9521 622.0
44.019 617.0
44.0858 616.0
44.1527 615.0
44.2195 578.0
44.2864 605.0
44.3532 573.0
44.4201 568.0
44.4869 620.0
44.5537 582.0
44.6206 588.0
44.6874 656.0
44.7543 612.0
44.8211 581.0
44.888 613.0
44.9548 604.0
45.0217 637.0
45.0885 578.0
45.1553 604.0
45.2222 580.0
45.289 551.0
45.3559 635.0
45.4227 550.0
45.4896 614.0
45.5564 619.0
45.6233 586.0
45.6901 592.0
45.757 552.0
45.8238 520.0
45.8906 580.0
45.9575 534.0
46.0243 532.0
46.0912 558.0
46.158 538.0
46.2249 553.0
46.2917 564.0
46.3586 509.0
46.4254 528.0
46.4922 592.0
46.5591 585.0
46.6259 596.0
46.6928 566.0
46.7596 584.0
46.8265 570.0
46.8933 664.0
46.9602 555.0
47.027 528.0
47.0939 570.0
47.1607 564.0
47.2275 513.0
47.2944 576.0
47.3612 549.0
47.4281 531.0
47.4949 575.0
47.5618 557.0
47.6286 535.0
47.6955 558.0
47.7623 533.0
47.8291 565.0
47.896 560.0
47.9628 524.0
48.0297 599.0
48.0965 575.0
48.1634 576.0
48.2302 574.0
48.2971 527.0
48.3639 584.0
48.4308 576.0
48.4976 566.0
48.5644 537.0
48.6313 519.0
48.6981 548.0
48.765 541.0
48.8318 618.0
48.8987 612.0
48.9655 615.0
49.0324 626.0
49.0992 662.0
49.1661 674.0
49.2329 776.0
49.2997 755.0
49.3666 760.0
49.4334 727.0
49.5003 743.0
49.5671 721.0
49.634 692.0
49.7008 706.0
49.7677 730.0
49.8345 683.0
49.9013 616.0
49.9682 648.0
50.035 690.0
50.1019 678.0
50.1687 639.0
50.2356 609.0
50.3024 650.0
50.3693 665.0
50.4361 633.0
50.503 634.0
50.5698 651.0
50.6366 682.0
50.7035 615.0
50.7703 636.0
50.8372 660.0
50.904 672.0
50.9709 618.0
51.0377 647.0
51.1046 664.0
51.1714 639.0
51.2382 584.0
51.3051 636.0
51.3719 613.0
51.4388 591.0
51.5056 581.0
51.5725 574.0
51.6393 598.0
51.7062 569.0
51.773 621.0
51.8399 590.0
51.9067 603.0
51.9735 578.0
52.0404 551.0
52.1072 591.0
52.1741 586.0
52.2409 529.0
52.3078 623.0
52.3746 556.0
52.4415 578.0
52.5083 531.0
52.5751 603.0
52.642 589.0
52.7088 548.0
52.7757 591.0
52.8425 591.0
52.9094 552.0
52.9762 525.0
53.0431 535.0
53.1099 591.0
53.1768 551.0
53.2436 536.0
53.3104 538.0
53.3773 547.0
53.4441 527.0
53.511 570.0
53.5778 606.0
53.6447 598.0
53.7115 550.0
53.7784 587.0
53.8452 569.0
53.9121 533.0
53.9789 517.0
54.0457 519.0
54.1126 553.0
54.1794 496.0
54.2463 536.0
54.3131 561.0
54.38 521.0
54.4468 504.0
54.5137 523.0
54.5805 543.0
54.6473 591.0
54.7142 542.0
54.781 507.0
54.8479 525.0
54.9147 554.0
54.9816 535.0
55.0484 523.0
55.1153 534.0
55.1821 504.0
55.249 541.0
55.3158 552.0
55.3826 548.0
55.4495 583.0
55.5163 568.0
55.5832 586.0
55.65 576.0
55.7169 604.0
55.7837 592.0
55.8506 617.0
55.9174 566.0
55.9842 570.0
56.0511 574.0
56.1179 650.0
56.1848 588.0
56.2516 553.0
56.3185 613.0
56.3853 571.0
56.4522 587.0
56.519 575.0
56.5859 559.0
56.6527 566.0
56.7195 551.0
56.7864 539.0
56.8532 589.0
56.9201 524.0
56.9869 523.0
57.0538 522.0
57.1206 506.0
57.1875 529.0
57.2543 531.0
57.3212 519.0
57.388 513.0
57.4548 519.0
57.5217 500.0
57.5885 507.0
57.6554 500.0
57.7222 470.0
57.7891 470.0
57.8559 488.0
57.9228 505.0
57.9896 516.0
58.0564 442.0
58.1233 494.0
58.1901 487.0
58.257 490.0
58.3238 492.0
58.3907 450.0
58.4575 481.0
58.5244 469.0
58.5912 448.0
58.6581 474.0
58.7249 467.0
58.7917 494.0
58.8586 451.0
58.9254 492.0
58.9923 448.0
59.0591 456.0
59.126 467.0
59.1928 462.0
59.2597 506.0
59.3265 519.0
59.3933 540.0
59.4602 507.0
59.527 564.0
59.5939 505.0
59.6607 529.0
59.7276 534.0
59.7944 506.0
59.8613 505.0
59.9281 545.0
59.995 520.0
60.0618 531.0
60.1286 483.0
60.1955 474.0
60.2623 471.0
60.3292 446.0
60.396 480.0
60.4629 498.0
60.5297 520.0
60.5966 534.0
60.6634 488.0
60.7302 511.0
60.7971 498.0
60.8639 476.0
60.9308 518.0
60.9976 478.0
61.0645 454.0
61.1313 521.0
61.1982 507.0
61.265 488.0
61.3319 495.0
61.3987 492.0
61.4655 489.0
61.5324 537.0
61.5992 503.0
61.6661 529.0
61.7329 500.0
61.7998 500.0
61.8666 490.0
61.9335 481.0
62.0003 503.0
62.0672 511.0
62.134 469.0
62.2008 440.0
62.2677 471.0
62.3345 462.0
62.4014 465.0
62.4682 496.0
62.5351 487.0
62.6019 462.0
62.6688 469.0
62.7356 461.0
62.8024 469.0
62.8693 478.0
62.9361 477.0
63.003 480.0
63.0698 444.0
63.1367 480.0
63.2035 449.0
63.2704 473.0
63.3372 492.0
63.4041 442.0
63.4709 453.0
63.5377 461.0
63.6046 510.0
63.6714 461.0
63.7383 480.0
63.8051 469.0
63.872 488.0
63.9388 424.0
64.0057 450.0
64.0725 474.0
64.1393 453.0
64.2062 458.0
64.273 469.0
64.3399 506.0
64.4067 465.0
64.4736 478.0
64.5404 459.0
64.6073 478.0
64.6741 459.0
64.741 509.0
64.8078 472.0
64.8746 473.0
64.9415 457.0
65.0083 448.0
65.0752 465.0
65.142 478.0
65.2089 444.0
65.2757 480.0
65.3426 433.0
65.4094 438.0
65.4762 446.0
65.5431 447.0
65.6099 444.0
65.6768 463.0
65.7436 443.0
65.8105 497.0
65.8773 456.0
65.9442 501.0
66.011 454.0
66.0779 485.0
66.1447 457.0
66.2115 456.0
66.2784 483.0
66.3452 466.0
66.4121 491.0
66.4789 448.0
66.5458 427.0
66.6126 486.0
66.6795 445.0
66.7463 487.0
66.8132 459.0
66.88 491.0
66.9468 535.0
67.0137 494.0
67.0805 508.0
67.1474 506.0
67.2142 521.0
67.2811 492.0
67.3479 479.0
67.4148 495.0
67.4816 522.0
67.5484 471.0
67.6153 473.0
67.6821 460.0
67.749 443.0
67.8158 493.0
67.8827 479.0
67.9495 439.0
68.0164 471.0
68.0832 440.0
68.1501 448.0
68.2169 475.0
68.2837 438.0
68.3506 448.0
68.4174 431.0
68.4843 438.0
68.5511 422.0
68.618 431.0
68.6848 438.0
68.7517 409.0
68.8185 456.0
68.8853 447.0
68.9522 435.0
69.019 480.0
69.0859 466.0
69.1527 418.0
69.2196 447.0
69.2864 435.0
69.3533 459.0
69.4201 422.0
69.487 418.0
69.5538 486.0
69.6206 438.0
69.6875 427.0
69.7543 395.0
69.8212 475.0
69.888 423.0
69.9549 396.0
70.0217 469.0
70.0886 442.0
70.1554 454.0
70.2222 434.0
70.2891 481.0
70.3559 467.0
70.4228 442.0
70.4896 454.0
70.5565 471.0
70.6233 467.0
70.6902 441.0
70.757 500.0
70.8239 491.0
70.8907 443.0
70.9575 474.0
71.0244 440.0
71.0912 507.0
71.1581 444.0
71.2249 412.0
71.2918 440.0
71.3586 477.0
71.4255 428.0
71.4923 424.0
71.5592 413.0
71.626 432.0
71.6928 477.0
71.7597 404.0
71.8265 412.0
71.8934 469.0
71.9602 440.0
72.0271 398.0
72.0939 432.0
72.1608 447.0
72.2276 389.0
72.2944 404.0
72.3613 408.0
72.4281 411.0
72.495 426.0
72.5618 407.0
72.6287 404.0
72.6955 422.0
72.7624 419.0
72.8292 377.0
72.8961 399.0
72.9629 439.0
73.0297 422.0
73.0966 410.0
73.1634 384.0
73.2303 396.0
73.2971 394.0
73.364 426.0
73.4308 414.0
73.4977 411.0
73.5645 401.0
73.6313 446.0
73.6982 408.0
73.765 380.0
73.8319 407.0
73.8987 350.0
73.9656 409.0
74.0324 409.0
74.0993 414.0
74.1661 404.0
74.233 396.0
74.2998 409.0
74.3666 378.0
74.4335 406.0
74.5003 354.0
74.5672 443.0
74.634 418.0
74.7009 378.0
74.7677 370.0
74.8346 401.0
74.9014 380.0
74.9683 394.0
75.0351 412.0
75.1019 397.0
75.1688 383.0
75.2356 413.0
75.3025 365.0
75.3693 365.0
75.4362 381.0
75.503 384.0
75.5699 377.0
75.6367 375.0
75.7035 371.0
75.7704 377.0
75.8372 372.0
75.9041 362.0
75.9709 377.0
76.0378 391.0
76.1046 375.0
76.1715 384.0
76.2383 348.0
76.3052 366.0
76.372 381.0
76.4388 383.0
76.5057 409.0
76.5725 367.0
76.6394 346.0
76.7062 347.0
76.7731 366.0
76.8399 356.0
76.9068 401.0
76.9736 360.0
77.0404 355.0
77.1073 354.0
77.1741 332.0
77.241 354.0
77.3078 332.0
77.3747 375.0
77.4415 345.0
77.5084 368.0
77.5752 347.0
77.6421 339.0
77.7089 339.0
77.7757 346.0
77.8426 387.0
77.9094 324.0
77.9763 352.0
78.0431 341.0
78.11 370.0
78.1768 346.0
78.2437 361.0
78.3105 317.0
78.3773 336.0
78.4442 362.0
78.511 373.0
78.5779 333.0
78.6447 356.0
78.7116 338.0
78.7784 346.0
78.8453 315.0
78.9121 315.0
78.979 339.0
79.0458 353.0
79.1126 361.0
79.1795 342.0
79.2463 336.0
79.3132 333.0
79.38 346.0
79.4469 320.0
79.5137 365.0
79.5806 341.0
79.6474 306.0
79.7143 333.0
79.7811 295.0
79.8479 308.0
79.9148 332.0
79.9816 350.0
80.0485 288.0
80.1153 294.0
80.1822 303.0
80.249 269.0
80.3159 334.0
80.3827 307.0
80.4495 302.0
80.5164 321.0
80.5832 300.0
80.6501 325.0
80.7169 313.0
80.7838 297.0
80.8506 331.0
80.9175 337.0
80.9843 295.0
81.0512 310.0
81.118 305.0
81.1848 293.0
81.2517 313.0
81.3185 258.0
81.3854 275.0
81.4522 298.0
81.5191 291.0
81.5859 292.0
81.6528 315.0
81.7196 295.0
81.7864 287.0
81.8533 321.0
81.9201 316.0
81.987 309.0
82.0538 286.0
82.1207 282.0
82.1875 299.0
82.2544 294.0
82.3212 291.0
82.3881 266.0
82.4549 290.0
82.5217 295.0
82.5886 309.0
82.6554 273.0
82.7223 280.0
82.7891 271.0
82.856 267.0
82.9228 288.0
82.9897 299.0
83.0565 282.0
83.1233 271.0
83.1902 301.0
83.257 283.0
83.3239 266.0
83.3907 299.0
83.4576 278.0
83.5244 290.0
83.5913 256.0
83.6581 283.0
83.725 270.0
83.7918 252.0
83.8586 270.0
83.9255 282.0
83.9923 267.0
84.0592 264.0
84.126 311.0
84.1929 271.0
84.2597 302.0
84.3266 259.0
84.3934 239.0
84.4603 256.0
84.5271 245.0
84.5939 244.0
84.6608 268.0
84.7276 251.0
84.7945 269.0
84.8613 268.0
84.9282 236.0
84.995 241.0
85.0619 247.0
85.1287 263.0
85.1955 266.0
85.2624 258.0
85.3292 243.0
85.3961 263.0
85.4629 246.0
85.5298 264.0
85.5966 246.0
85.6635 243.0
85.7303 248.0
85.7972 257.0
85.864 258.0
85.9308 246.0
85.9977 270.0
86.0645 235.0
86.1314 229.0
86.1982 230.0
86.2651 216.0
86.3319 219.0
86.3988 268.0
86.4656 246.0
86.5324 244.0
86.5993 214.0
86.6661 236.0
86.733 259.0
86.7998 260.0
86.8667 230.0
86.9335 233.0
87.0004 263.0
87.0672 242.0
87.1341 217.0
87.2009 219.0
87.2677 273.0
87.3346 232.0
87.4014 250.0
87.4683 266.0
87.5351 243.0
87.602 217.0
87.6688 220.0
87.7357 232.0
87.8025 200.0
87.8693 254.0
87.9362 238.0
88.003 228.0
88.0699 258.0
88.1367 237.0
88.2036 238.0
88.2704 222.0
88.3373 213.0
88.4041 228.0
88.471 232.0
88.5378 244.0
88.6046 211.0
88.6715 206.0
88.7383 221.0
88.8052 220.0
88.872 253.0
88.9389 254.0
89.0057 217.0
89.0726 216.0
89.1394 227.0
89.2063 213.0
89.2731 222.0
89.3399 217.0
89.4068 231.0
89.4736 199.0
89.5405 240.0
89.6073 232.0
89.6742 206.0
89.741 250.0
89.8079 246.0
89.8747 236.0
89.9415 217.0