File: code/XRD_Analysis/External Sources/Alex_SAPO/20230107_SAPO-18_230105_1_calc550C.xy
4.98146 1515.0
5.0483 1549.0
5.11515 1464.0
5.18199 1484.0
5.24884 1511.0
5.31568 1426.0
5.38253 1489.0
5.44937 1316.0
5.51622 1351.0
5.58306 1363.0
5.64991 1305.0
5.71675 1275.0
5.7836 1289.0
5.85044 1283.0
5.91729 1287.0
5.98413 1237.0
6.05098 1211.0
6.11782 1229.0
6.18467 1231.0
6.25151 1201.0
6.31836 1230.0
6.3852 1129.0
6.45205 1168.0
6.51889 1087.0
6.58574 1158.0
6.65258 1110.0
6.71943 1106.0
6.78627 1042.0
6.85312 1123.0
6.91996 1035.0
6.98681 1103.0
7.05365 1004.0
7.1205 1026.0
7.18734 997.0
7.25419 1069.0
7.32103 1009.0
7.38788 1017.0
7.45472 1044.0
7.52157 1015.0
7.58841 1028.0
7.65526 1002.0
7.7221 971.0
7.78895 946.0
7.85579 978.0
7.92264 1001.0
7.98948 989.0
8.05633 985.0
8.12317 986.0
8.19002 947.0
8.25686 892.0
8.32371 882.0
8.39055 945.0
8.4574 896.0
8.52424 909.0
8.59109 939.0
8.65793 969.0
8.72478 916.0
8.79162 931.0
8.85847 898.0
8.92532 976.0
8.99216 1016.0
9.05901 994.0
9.12585 1149.0
9.1927 1210.0
9.25954 1423.0
9.32639 1993.0
9.39323 2928.0
9.46008 5289.0
9.52692 9442.0
9.59377 10951.0
9.66061 7957.0
9.72746 5351.0
9.7943 3164.0
9.86115 2001.0
9.92799 1593.0
9.99484 1310.0
10.0617 1149.0
10.1285 1083.0
10.1954 1122.0
10.2622 1049.0
10.3291 1070.0
10.3959 1182.0
10.4628 1220.0
10.5296 1510.0
10.5964 2004.0
10.6633 2415.0
10.7301 2392.0
10.797 1878.0
10.8638 1473.0
10.9307 1172.0
10.9975 1067.0
11.0644 971.0
11.1312 943.0
11.198 812.0
11.2649 882.0
11.3317 819.0
11.3986 832.0
11.4654 795.0
11.5323 804.0
11.5991 768.0
11.666 800.0
11.7328 785.0
11.7997 726.0
11.8665 790.0
11.9333 793.0
12.0002 717.0
12.067 721.0
12.1339 761.0
12.2007 773.0
12.2676 754.0
12.3344 753.0
12.4013 728.0
12.4681 786.0
12.5349 776.0
12.6018 807.0
12.6686 889.0
12.7355 978.0
12.8023 1089.0
12.8692 1729.0
12.936 2414.0
13.0029 2573.0
13.0697 1824.0
13.1366 1270.0
13.2034 1010.0
13.2702 931.0
13.3371 924.0
13.4039 930.0
13.4708 1085.0
13.5376 1279.0
13.6045 1310.0
13.6713 1240.0
13.7382 1093.0
13.805 904.0
13.8719 880.0
13.9387 879.0
14.0055 866.0
14.0724 931.0
14.1392 801.0
14.2061 744.0
14.2729 755.0
14.3398 654.0
14.4066 770.0
14.4735 660.0
14.5403 706.0
14.6071 719.0
14.674 783.0
14.7408 766.0
14.8077 793.0
14.8745 779.0
14.9414 692.0
15.0082 753.0
15.0751 711.0
15.1419 720.0
15.2088 750.0
15.2756 743.0
15.3424 717.0
15.4093 724.0
15.4761 752.0
15.543 744.0
15.6098 790.0
15.6767 769.0
15.7435 810.0
15.8104 871.0
15.8772 906.0
15.944 1035.0
16.0109 1302.0
16.0777 1802.0
16.1446 2082.0
16.2114 1984.0
16.2783 1776.0
16.3451 1590.0
16.412 1300.0
16.4788 1085.0
16.5457 1058.0
16.6125 992.0
16.6793 1069.0
16.7462 1177.0
16.813 1352.0
16.8799 1723.0
16.9467 2397.0
17.0136 3186.0
17.0804 3811.0
17.1473 3226.0
17.2141 2723.0
17.2809 2495.0
17.3478 2462.0
17.4146 2333.0
17.4815 1990.0
17.5483 1749.0
17.6152 1407.0
17.682 1281.0
17.7489 1175.0
17.8157 1175.0
17.8826 1058.0
17.9494 982.0
18.0162 1024.0
18.0831 949.0
18.1499 917.0
18.2168 848.0
18.2836 931.0
18.3505 877.0
18.4173 881.0
18.4842 839.0
18.551 904.0
18.6179 866.0
18.6847 904.0
18.7515 901.0
18.8184 934.0
18.8852 955.0
18.9521 1025.0
19.0189 1164.0
19.0858 1404.0
19.1526 1523.0
19.2195 1469.0
19.2863 1336.0
19.3531 1188.0
19.42 1112.0
19.4868 1142.0
19.5537 1121.0
19.6205 1303.0
19.6874 1419.0
19.7542 1493.0
19.8211 1503.0
19.8879 1394.0
19.9548 1343.0
20.0216 1397.0
20.0884 1497.0
20.1553 1604.0
20.2221 1813.0
20.289 1763.0
20.3558 1568.0
20.4227 1613.0
20.4895 1584.0
20.5564 1669.0
20.6232 2124.0
20.69 2618.0
20.7569 3114.0
20.8237 2603.0
20.8906 2130.0
20.9574 1724.0
21.0243 1509.0
21.0911 1439.0
21.158 1525.0
21.2248 1636.0
21.2917 1942.0
21.3585 2157.0
21.4253 2469.0
21.4922 2791.0
21.559 2730.0
21.6259 2472.0
21.6927 2000.0
21.7596 1599.0
21.8264 1364.0
21.8933 1277.0
21.9601 1176.0
22.0269 1216.0
22.0938 1192.0
22.1606 1250.0
22.2275 1173.0
22.2943 1216.0
22.3612 1261.0
22.428 1212.0
22.4949 1262.0
22.5617 1323.0
22.6286 1448.0
22.6954 1485.0
22.7622 1391.0
22.8291 1308.0
22.8959 1267.0
22.9628 1286.0
23.0296 1400.0
23.0965 1347.0
23.1633 1427.0
23.2302 1562.0
23.297 1710.0
23.3639 1606.0
23.4307 1523.0
23.4975 1516.0
23.5644 1501.0
23.6312 1533.0
23.6981 1656.0
23.7649 1823.0
23.8318 2033.0
23.8986 2520.0
23.9655 3106.0
24.0323 3467.0
24.0991 3583.0
24.166 3626.0
24.2328 3135.0
24.2997 2588.0
24.3665 2144.0
24.4334 1859.0
24.5002 1673.0
24.5671 1558.0
24.6339 1576.0
24.7008 1464.0
24.7676 1399.0
24.8344 1368.0
24.9013 1426.0
24.9681 1430.0
25.035 1418.0
25.1018 1406.0
25.1687 1393.0
25.2355 1414.0
25.3024 1434.0
25.3692 1582.0
25.436 1673.0
25.5029 1585.0
25.5697 1582.0
25.6366 1554.0
25.7034 1550.0
25.7703 1614.0
25.8371 1680.0
25.904 1861.0
25.9708 2051.0
26.0377 2405.0
26.1045 2472.0
26.1713 2292.0
26.2382 2256.0
26.305 2204.0
26.3719 2161.0
26.4387 2436.0
26.5056 2539.0
26.5724 2399.0
26.6393 2172.0
26.7061 1874.0
26.773 1709.0
26.8398 1546.0
26.9066 1547.0
26.9735 1441.0
27.0403 1470.0
27.1072 1368.0
27.174 1417.0
27.2409 1417.0
27.3077 1463.0
27.3746 1455.0
27.4414 1425.0
27.5082 1457.0
27.5751 1488.0
27.6419 1513.0
27.7088 1566.0
27.7756 1643.0
27.8425 1681.0
27.9093 1844.0
27.9762 1949.0
28.043 2034.0
28.1099 2153.0
28.1767 2281.0
28.2435 2234.0
28.3104 2104.0
28.3772 1955.0
28.4441 1831.0
28.5109 1581.0
28.5778 1513.0
28.6446 1507.0
28.7115 1457.0
28.7783 1418.0
28.8451 1439.0
28.912 1396.0
28.9788 1344.0
29.0457 1386.0
29.1125 1403.0
29.1794 1314.0
29.2462 1377.0
29.3131 1412.0
29.3799 1410.0
29.4468 1383.0
29.5136 1548.0
29.5804 1525.0
29.6473 1671.0
29.7141 1759.0
29.781 1789.0
29.8478 1695.0
29.9147 1754.0
29.9815 1796.0
30.0484 1839.0
30.1152 1969.0
30.182 2090.0
30.2489 1969.0
30.3157 1953.0
30.3826 1940.0
30.4494 1898.0
30.5163 2043.0
30.5831 2117.0
30.65 2007.0
30.7168 2109.0
30.7837 2113.0
30.8505 2227.0
30.9173 2304.0
30.9842 2304.0
31.051 2417.0
31.1179 2735.0
31.1847 3063.0
31.2516 3349.0
31.3184 3266.0
31.3853 3067.0
31.4521 2850.0
31.519 2422.0
31.5858 2216.0
31.6526 1938.0
31.7195 1881.0
31.7863 1824.0
31.8532 1757.0
31.92 1754.0
31.9869 1685.0
32.0537 1565.0
32.1206 1588.0
32.1874 1618.0
32.2542 1586.0
32.3211 1668.0
32.3879 1817.0
32.4548 1923.0
32.5216 1897.0
32.5885 1798.0
32.6553 1709.0
32.7222 1675.0
32.789 1723.0
32.8559 1716.0
32.9227 1751.0
32.9895 1730.0
33.0564 1680.0
33.1232 1661.0
33.1901 1587.0
33.2569 1490.0
33.3238 1340.0
33.3906 1332.0
33.4575 1294.0
33.5243 1120.0
33.5911 1096.0
33.658 1069.0
33.7248 1031.0
33.7917 1131.0
33.8585 1082.0
33.9254 1002.0
33.9922 1070.0
34.0591 972.0
34.1259 951.0
34.1928 929.0
34.2596 876.0
34.3264 927.0
34.3933 914.0
34.4601 1029.0
34.527 1011.0
34.5938 1056.0
34.6607 895.0
34.7275 907.0
34.7944 849.0
34.8612 866.0
34.928 928.0
34.9949 922.0
35.0617 931.0
35.1286 932.0
35.1954 889.0
35.2623 867.0
35.3291 859.0
35.396 866.0
35.4628 821.0
35.5297 838.0
35.5965 794.0
35.6633 839.0
35.7302 833.0
35.797 859.0
35.8639 786.0
35.9307 822.0
35.9976 815.0
36.0644 847.0
36.1313 853.0
36.1981 831.0
36.265 870.0
36.3318 825.0
36.3986 838.0
36.4655 872.0
36.5323 893.0
36.5992 845.0
36.666 793.0
36.7329 840.0
36.7997 767.0
36.8666 743.0
36.9334 727.0
37.0002 757.0
37.0671 709.0
37.1339 707.0
37.2008 713.0
37.2676 729.0
37.3345 728.0
37.4013 685.0
37.4682 693.0
37.535 662.0
37.6019 676.0
37.6687 645.0
37.7355 616.0
37.8024 621.0
37.8692 661.0
37.9361 674.0
38.0029 668.0
38.0698 658.0
38.1366 631.0
38.2035 625.0
38.2703 634.0
38.3371 630.0
38.404 672.0
38.4708 668.0
38.5377 625.0
38.6045 690.0
38.6714 676.0
38.7382 657.0
38.8051 684.0
38.8719 662.0
38.9388 697.0
39.0056 707.0
39.0724 679.0
39.1393 738.0
39.2061 727.0
39.273 706.0
39.3398 756.0
39.4067 716.0
39.4735 699.0
39.5404 690.0
39.6072 760.0
39.6741 781.0
39.7409 727.0
39.8077 712.0
39.8746 708.0
39.9414 669.0
40.0083 701.0
40.0751 651.0
40.142 648.0
40.2088 645.0
40.2757 661.0
40.3425 605.0
40.4093 674.0
40.4762 632.0
40.543 646.0
40.6099 673.0
40.6767 656.0
40.7436 679.0
40.8104 668.0
40.8773 692.0
40.9441 679.0
41.011 683.0
41.0778 686.0
41.1446 667.0
41.2115 708.0
41.2783 719.0
41.3452 714.0
41.412 711.0
41.4789 712.0
41.5457 674.0
41.6126 683.0
41.6794 692.0
41.7462 664.0
41.8131 682.0
41.8799 723.0
41.9468 686.0
42.0136 706.0
42.0805 663.0
42.1473 670.0
42.2142 674.0
42.281 651.0
42.3479 698.0
42.4147 668.0
42.4815 614.0
42.5484 642.0
42.6152 628.0
42.6821 639.0
42.7489 648.0
42.8158 637.0
42.8826 628.0
42.9495 665.0
43.0163 672.0
43.0831 646.0
43.15 663.0
43.2168 630.0
43.2837 695.0
43.3505 748.0
43.4174 696.0
43.4842 716.0
43.5511 778.0
43.6179 716.0
43.6848 729.0
43.7516 703.0
43.8184 635.0
43.8853 665.0
43.9521 703.0
44.019 742.0
44.0858 704.0
44.1527 667.0
44.2195 659.0
44.2864 641.0
44.3532 620.0
44.4201 610.0
44.4869 633.0
44.5537 639.0
44.6206 628.0
44.6874 647.0
44.7543 678.0
44.8211 723.0
44.888 649.0
44.9548 665.0
45.0217 602.0
45.0885 659.0
45.1553 641.0
45.2222 675.0
45.289 680.0
45.3559 669.0
45.4227 670.0
45.4896 646.0
45.5564 645.0
45.6233 667.0
45.6901 605.0
45.757 596.0
45.8238 617.0
45.8906 654.0
45.9575 631.0
46.0243 644.0
46.0912 597.0
46.158 579.0
46.2249 637.0
46.2917 595.0
46.3586 587.0
46.4254 602.0
46.4922 576.0
46.5591 635.0
46.6259 580.0
46.6928 652.0
46.7596 620.0
46.8265 603.0
46.8933 630.0
46.9602 613.0
47.027 643.0
47.0939 654.0
47.1607 603.0
47.2275 622.0
47.2944 601.0
47.3612 621.0
47.4281 609.0
47.4949 634.0
47.5618 628.0
47.6286 620.0
47.6955 625.0
47.7623 572.0
47.8291 596.0
47.896 590.0
47.9628 636.0
48.0297 627.0
48.0965 600.0
48.1634 607.0
48.2302 600.0
48.2971 597.0
48.3639 609.0
48.4308 637.0
48.4976 622.0
48.5644 563.0
48.6313 601.0
48.6981 632.0
48.765 631.0
48.8318 637.0
48.8987 643.0
48.9655 660.0
49.0324 631.0
49.0992 740.0
49.1661 732.0
49.2329 800.0
49.2997 793.0
49.3666 732.0
49.4334 800.0
49.5003 810.0
49.5671 767.0
49.634 814.0
49.7008 686.0
49.7677 719.0
49.8345 714.0
49.9013 727.0
49.9682 692.0
50.035 710.0
50.1019 658.0
50.1687 750.0
50.2356 732.0
50.3024 656.0
50.3693 663.0
50.4361 726.0
50.503 688.0
50.5698 686.0
50.6366 712.0
50.7035 726.0
50.7703 752.0
50.8372 719.0
50.904 712.0
50.9709 760.0
51.0377 711.0
51.1046 737.0
51.1714 750.0
51.2382 732.0
51.3051 690.0
51.3719 665.0
51.4388 680.0
51.5056 662.0
51.5725 666.0
51.6393 674.0
51.7062 677.0
51.773 636.0
51.8399 647.0
51.9067 656.0
51.9735 637.0
52.0404 674.0
52.1072 668.0
52.1741 604.0
52.2409 583.0
52.3078 602.0
52.3746 613.0
52.4415 604.0
52.5083 637.0
52.5751 628.0
52.642 644.0
52.7088 568.0
52.7757 634.0
52.8425 635.0
52.9094 590.0
52.9762 591.0
53.0431 600.0
53.1099 580.0
53.1768 605.0
53.2436 627.0
53.3104 632.0
53.3773 603.0
53.4441 595.0
53.511 580.0
53.5778 628.0
53.6447 604.0
53.7115 628.0
53.7784 597.0
53.8452 590.0
53.9121 567.0
53.9789 561.0
54.0457 576.0
54.1126 601.0
54.1794 614.0
54.2463 590.0
54.3131 574.0
54.38 587.0
54.4468 580.0
54.5137 605.0
54.5805 571.0
54.6473 574.0
54.7142 582.0
54.781 609.0
54.8479 581.0
54.9147 598.0
54.9816 583.0
55.0484 575.0
55.1153 578.0
55.1821 565.0
55.249 585.0
55.3158 580.0
55.3826 592.0
55.4495 613.0
55.5163 604.0
55.5832 668.0
55.65 615.0
55.7169 616.0
55.7837 618.0
55.8506 633.0
55.9174 679.0
55.9842 644.0
56.0511 657.0
56.1179 616.0
56.1848 639.0
56.2516 693.0
56.3185 651.0
56.3853 629.0
56.4522 591.0
56.519 656.0
56.5859 597.0
56.6527 630.0
56.7195 569.0
56.7864 587.0
56.8532 560.0
56.9201 572.0
56.9869 604.0
57.0538 547.0
57.1206 566.0
57.1875 575.0
57.2543 561.0
57.3212 575.0
57.388 543.0
57.4548 590.0
57.5217 576.0
57.5885 545.0
57.6554 500.0
57.7222 566.0
57.7891 522.0
57.8559 558.0
57.9228 542.0
57.9896 548.0
58.0564 543.0
58.1233 512.0
58.1901 474.0
58.257 517.0
58.3238 545.0
58.3907 534.0
58.4575 529.0
58.5244 500.0
58.5912 531.0
58.6581 495.0
58.7249 495.0
58.7917 526.0
58.8586 561.0
58.9254 517.0
58.9923 529.0
59.0591 534.0
59.126 545.0
59.1928 534.0
59.2597 532.0
59.3265 536.0
59.3933 557.0
59.4602 560.0
59.527 601.0
59.5939 579.0
59.6607 600.0
59.7276 584.0
59.7944 592.0
59.8613 594.0
59.9281 569.0
59.995 573.0
60.0618 647.0
60.1286 521.0
60.1955 535.0
60.2623 516.0
60.3292 533.0
60.396 569.0
60.4629 541.0
60.5297 550.0
60.5966 548.0
60.6634 527.0
60.7302 595.0
60.7971 559.0
60.8639 571.0
60.9308 560.0
60.9976 549.0
61.0645 553.0
61.1313 555.0
61.1982 563.0
61.265 539.0
61.3319 531.0
61.3987 540.0
61.4655 529.0
61.5324 540.0
61.5992 566.0
61.6661 563.0
61.7329 572.0
61.7998 595.0
61.8666 543.0
61.9335 563.0
62.0003 520.0
62.0672 540.0
62.134 486.0
62.2008 518.0
62.2677 509.0
62.3345 567.0
62.4014 490.0
62.4682 487.0
62.5351 493.0
62.6019 517.0
62.6688 487.0
62.7356 528.0
62.8024 512.0
62.8693 513.0
62.9361 523.0
63.003 497.0
63.0698 494.0
63.1367 473.0
63.2035 517.0
63.2704 505.0
63.3372 495.0
63.4041 509.0
63.4709 517.0
63.5377 516.0
63.6046 494.0
63.6714 514.0
63.7383 501.0
63.8051 534.0
63.872 522.0
63.9388 519.0
64.0057 535.0
64.0725 508.0
64.1393 521.0
64.2062 488.0
64.273 540.0
64.3399 502.0
64.4067 526.0
64.4736 507.0
64.5404 554.0
64.6073 520.0
64.6741 507.0
64.741 500.0
64.8078 502.0
64.8746 488.0
64.9415 506.0
65.0083 488.0
65.0752 516.0
65.142 545.0
65.2089 527.0
65.2757 513.0
65.3426 487.0
65.4094 464.0
65.4762 508.0
65.5431 519.0
65.6099 456.0
65.6768 507.0
65.7436 495.0
65.8105 536.0
65.8773 508.0
65.9442 500.0
66.011 491.0
66.0779 522.0
66.1447 529.0
66.2115 498.0
66.2784 537.0
66.3452 449.0
66.4121 502.0
66.4789 533.0
66.5458 498.0
66.6126 525.0
66.6795 446.0
66.7463 544.0
66.8132 523.0
66.88 511.0
66.9468 543.0
67.0137 534.0
67.0805 503.0
67.1474 587.0
67.2142 545.0
67.2811 540.0
67.3479 571.0
67.4148 528.0
67.4816 525.0
67.5484 547.0
67.6153 539.0
67.6821 522.0
67.749 526.0
67.8158 535.0
67.8827 498.0
67.9495 506.0
68.0164 512.0
68.0832 516.0
68.1501 509.0
68.2169 504.0
68.2837 490.0
68.3506 470.0
68.4174 507.0
68.4843 465.0
68.5511 490.0
68.618 466.0
68.6848 508.0
68.7517 465.0
68.8185 487.0
68.8853 483.0
68.9522 496.0
69.019 463.0
69.0859 458.0
69.1527 492.0
69.2196 501.0
69.2864 428.0
69.3533 481.0
69.4201 486.0
69.487 483.0
69.5538 439.0
69.6206 495.0
69.6875 480.0
69.7543 482.0
69.8212 460.0
69.888 485.0
69.9549 502.0
70.0217 470.0
70.0886 506.0
70.1554 520.0
70.2222 495.0
70.2891 493.0
70.3559 503.0
70.4228 519.0
70.4896 523.0
70.5565 588.0
70.6233 493.0
70.6902 521.0
70.757 474.0
70.8239 508.0
70.8907 540.0
70.9575 475.0
71.0244 497.0
71.0912 480.0
71.1581 521.0
71.2249 488.0
71.2918 481.0
71.3586 475.0
71.4255 465.0
71.4923 469.0
71.5592 442.0
71.626 434.0
71.6928 451.0
71.7597 462.0
71.8265 429.0
71.8934 413.0
71.9602 461.0
72.0271 411.0
72.0939 479.0
72.1608 477.0
72.2276 460.0
72.2944 450.0
72.3613 454.0
72.4281 478.0
72.495 435.0
72.5618 433.0
72.6287 486.0
72.6955 434.0
72.7624 429.0
72.8292 445.0
72.8961 422.0
72.9629 471.0
73.0297 462.0
73.0966 442.0
73.1634 464.0
73.2303 465.0
73.2971 430.0
73.364 464.0
73.4308 441.0
73.4977 449.0
73.5645 433.0
73.6313 444.0
73.6982 407.0
73.765 459.0
73.8319 440.0
73.8987 411.0
73.9656 486.0
74.0324 447.0
74.0993 414.0
74.1661 453.0
74.233 412.0
74.2998 432.0
74.3666 429.0
74.4335 426.0
74.5003 435.0
74.5672 435.0
74.634 423.0
74.7009 398.0
74.7677 407.0
74.8346 423.0
74.9014 398.0
74.9683 443.0
75.0351 394.0
75.1019 481.0
75.1688 375.0
75.2356 395.0
75.3025 409.0
75.3693 401.0
75.4362 451.0
75.503 432.0
75.5699 391.0
75.6367 404.0
75.7035 435.0
75.7704 445.0
75.8372 392.0
75.9041 398.0
75.9709 426.0
76.0378 446.0
76.1046 431.0
76.1715 396.0
76.2383 389.0
76.3052 414.0
76.372 430.0
76.4388 436.0
76.5057 428.0
76.5725 413.0
76.6394 425.0
76.7062 355.0
76.7731 411.0
76.8399 417.0
76.9068 373.0
76.9736 393.0
77.0404 382.0
77.1073 386.0
77.1741 416.0
77.241 372.0
77.3078 411.0
77.3747 408.0
77.4415 406.0
77.5084 389.0
77.5752 398.0
77.6421 379.0
77.7089 377.0
77.7757 392.0
77.8426 389.0
77.9094 404.0
77.9763 417.0
78.0431 367.0
78.11 417.0
78.1768 416.0
78.2437 325.0
78.3105 366.0
78.3773 347.0
78.4442 438.0
78.511 413.0
78.5779 351.0
78.6447 377.0
78.7116 353.0
78.7784 379.0
78.8453 380.0
78.9121 371.0
78.979 380.0
79.0458 371.0
79.1126 355.0
79.1795 360.0
79.2463 338.0
79.3132 339.0
79.38 362.0
79.4469 330.0
79.5137 323.0
79.5806 332.0
79.6474 368.0
79.7143 382.0
79.7811 365.0
79.8479 370.0
79.9148 379.0
79.9816 372.0
80.0485 329.0
80.1153 377.0
80.1822 345.0
80.249 357.0
80.3159 358.0
80.3827 338.0
80.4495 329.0
80.5164 319.0
80.5832 331.0
80.6501 365.0
80.7169 342.0
80.7838 344.0
80.8506 347.0
80.9175 318.0
80.9843 361.0
81.0512 372.0
81.118 346.0
81.1848 308.0
81.2517 338.0
81.3185 360.0
81.3854 339.0
81.4522 330.0
81.5191 330.0
81.5859 314.0
81.6528 330.0
81.7196 339.0
81.7864 357.0
81.8533 353.0
81.9201 323.0
81.987 318.0
82.0538 344.0
82.1207 314.0
82.1875 334.0
82.2544 337.0
82.3212 329.0
82.3881 323.0
82.4549 324.0
82.5217 330.0
82.5886 337.0
82.6554 309.0
82.7223 299.0
82.7891 318.0
82.856 340.0
82.9228 288.0
82.9897 341.0
83.0565 322.0
83.1233 294.0
83.1902 311.0
83.257 332.0
83.3239 342.0
83.3907 332.0
83.4576 324.0
83.5244 309.0
83.5913 325.0
83.6581 298.0
83.725 337.0
83.7918 310.0
83.8586 330.0
83.9255 306.0
83.9923 272.0
84.0592 306.0
84.126 303.0
84.1929 273.0
84.2597 303.0
84.3266 271.0
84.3934 294.0
84.4603 280.0
84.5271 260.0
84.5939 284.0
84.6608 276.0
84.7276 259.0
84.7945 294.0
84.8613 315.0
84.9282 289.0
84.995 259.0
85.0619 287.0
85.1287 276.0
85.1955 284.0
85.2624 304.0
85.3292 294.0
85.3961 273.0
85.4629 272.0
85.5298 308.0
85.5966 284.0
85.6635 292.0
85.7303 302.0
85.7972 286.0
85.864 283.0
85.9308 289.0
85.9977 245.0
86.0645 276.0
86.1314 291.0
86.1982 257.0
86.2651 237.0
86.3319 273.0
86.3988 272.0
86.4656 274.0
86.5324 288.0
86.5993 258.0
86.6661 238.0
86.733 287.0
86.7998 251.0
86.8667 268.0
86.9335 273.0
87.0004 253.0
87.0672 266.0
87.1341 262.0
87.2009 287.0
87.2677 267.0
87.3346 264.0
87.4014 277.0
87.4683 280.0
87.5351 251.0
87.602 272.0
87.6688 236.0
87.7357 266.0
87.8025 260.0
87.8693 253.0
87.9362 235.0
88.003 235.0
88.0699 263.0
88.1367 255.0
88.2036 263.0
88.2704 286.0
88.3373 267.0
88.4041 237.0
88.471 280.0
88.5378 247.0
88.6046 268.0
88.6715 230.0
88.7383 257.0
88.8052 242.0
88.872 237.0
88.9389 250.0
89.0057 246.0
89.0726 251.0
89.1394 256.0
89.2063 275.0
89.2731 240.0
89.3399 241.0
89.4068 277.0
89.4736 236.0
89.5405 241.0
89.6073 248.0
89.6742 224.0
89.741 253.0
89.8079 228.0
89.8747 254.0
89.9415 256.0