File: code/XRD_Analysis/External Sources/Alex_SAPO/20230311_SAPO-18_230301_newauto_calc550C.xy
4.98146 4413.0
5.0483 4404.0
5.11515 4222.0
5.18199 4320.0
5.24884 4265.0
5.31568 4094.0
5.38253 4125.0
5.44937 3961.0
5.51622 4006.0
5.58306 3935.0
5.64991 3839.0
5.71675 3881.0
5.7836 3794.0
5.85044 3783.0
5.91729 3608.0
5.98413 3605.0
6.05098 3679.0
6.11782 3481.0
6.18467 3461.0
6.25151 3517.0
6.31836 3317.0
6.3852 3473.0
6.45205 3360.0
6.51889 3302.0
6.58574 3358.0
6.65258 3203.0
6.71943 3261.0
6.78627 3256.0
6.85312 3264.0
6.91996 3195.0
6.98681 3127.0
7.05365 3107.0
7.1205 3051.0
7.18734 3059.0
7.25419 3046.0
7.32103 2951.0
7.38788 2918.0
7.45472 3087.0
7.52157 2935.0
7.58841 2939.0
7.65526 2827.0
7.7221 3044.0
7.78895 2877.0
7.85579 2820.0
7.92264 2748.0
7.98948 2844.0
8.05633 2750.0
8.12317 2750.0
8.19002 2767.0
8.25686 2846.0
8.32371 2832.0
8.39055 2769.0
8.4574 2777.0
8.52424 2782.0
8.59109 2699.0
8.65793 2864.0
8.72478 2841.0
8.79162 2740.0
8.85847 2892.0
8.92532 2899.0
8.99216 2996.0
9.05901 3241.0
9.12585 3539.0
9.1927 3965.0
9.25954 4988.0
9.32639 7145.0
9.39323 12051.0
9.46008 23951.0
9.52692 36232.0
9.59377 26413.0
9.66061 16144.0
9.72746 8748.0
9.7943 5472.0
9.86115 4235.0
9.92799 3579.0
9.99484 3467.0
10.0617 3188.0
10.1285 3150.0
10.1954 2984.0
10.2622 3111.0
10.3291 3373.0
10.3959 3563.0
10.4628 4095.0
10.5296 5112.0
10.5964 6488.0
10.6633 7070.0
10.7301 5809.0
10.797 4486.0
10.8638 3579.0
10.9307 3077.0
10.9975 3035.0
11.0644 2766.0
11.1312 2584.0
11.198 2465.0
11.2649 2454.0
11.3317 2336.0
11.3986 2416.0
11.4654 2385.0
11.5323 2362.0
11.5991 2256.0
11.666 2322.0
11.7328 2155.0
11.7997 2201.0
11.8665 2206.0
11.9333 2147.0
12.0002 2234.0
12.067 2261.0
12.1339 2099.0
12.2007 2211.0
12.2676 2254.0
12.3344 2169.0
12.4013 2283.0
12.4681 2383.0
12.5349 2358.0
12.6018 2470.0
12.6686 2672.0
12.7355 3069.0
12.8023 4190.0
12.8692 6273.0
12.936 8089.0
13.0029 6134.0
13.0697 3966.0
13.1366 2987.0
13.2034 2784.0
13.2702 2645.0
13.3371 2743.0
13.4039 3068.0
13.4708 3821.0
13.5376 4246.0
13.6045 3703.0
13.6713 3121.0
13.7382 2579.0
13.805 2410.0
13.8719 2403.0
13.9387 2569.0
14.0055 2714.0
14.0724 2494.0
14.1392 2207.0
14.2061 2163.0
14.2729 2133.0
14.3398 2047.0
14.4066 2130.0
14.4735 2173.0
14.5403 2172.0
14.6071 2124.0
14.674 2141.0
14.7408 2211.0
14.8077 2302.0
14.8745 2206.0
14.9414 2164.0
15.0082 2097.0
15.0751 2092.0
15.1419 2121.0
15.2088 2163.0
15.2756 2154.0
15.3424 2137.0
15.4093 2245.0
15.4761 2272.0
15.543 2317.0
15.6098 2310.0
15.6767 2417.0
15.7435 2494.0
15.8104 2601.0
15.8772 2886.0
15.944 3484.0
16.0109 4854.0
16.0777 6178.0
16.1446 6694.0
16.2114 5870.0
16.2783 4741.0
16.3451 3722.0
16.412 3275.0
16.4788 3084.0
16.5457 3041.0
16.6125 3100.0
16.6793 3389.0
16.7462 3628.0
16.813 4553.0
16.8799 6162.0
16.9467 8661.0
17.0136 10573.0
17.0804 9922.0
17.1473 7886.0
17.2141 7214.0
17.2809 7046.0
17.3478 6821.0
17.4146 6053.0
17.4815 5228.0
17.5483 4316.0
17.6152 3852.0
17.682 3529.0
17.7489 3259.0
17.8157 3066.0
17.8826 2978.0
17.9494 2837.0
18.0162 2777.0
18.0831 2612.0
18.1499 2711.0
18.2168 2639.0
18.2836 2698.0
18.3505 2714.0
18.4173 2553.0
18.4842 2678.0
18.551 2641.0
18.6179 2550.0
18.6847 2684.0
18.7515 2752.0
18.8184 2766.0
18.8852 2929.0
18.9521 3040.0
19.0189 3637.0
19.0858 4530.0
19.1526 4705.0
19.2195 4086.0
19.2863 3644.0
19.3531 3323.0
19.42 3198.0
19.4868 3247.0
19.5537 3446.0
19.6205 3771.0
19.6874 4405.0
19.7542 4445.0
19.8211 4085.0
19.8879 3794.0
19.9548 3824.0
20.0216 4272.0
20.0884 4622.0
20.1553 5100.0
20.2221 5051.0
20.289 4734.0
20.3558 4358.0
20.4227 4404.0
20.4895 4492.0
20.5564 5543.0
20.6232 7662.0
20.69 9490.0
20.7569 8677.0
20.8237 6598.0
20.8906 5198.0
20.9574 4553.0
21.0243 4225.0
21.0911 4477.0
21.158 4911.0
21.2248 5749.0
21.2917 6326.0
21.3585 7236.0
21.4253 8047.0
21.4922 8532.0
21.559 7544.0
21.6259 5985.0
21.6927 4825.0
21.7596 4241.0
21.8264 3858.0
21.8933 3678.0
21.9601 3597.0
22.0269 3534.0
22.0938 3522.0
22.1606 3559.0
22.2275 3433.0
22.2943 3421.0
22.3612 3516.0
22.428 3629.0
22.4949 3786.0
22.5617 4161.0
22.6286 4256.0
22.6954 4127.0
22.7622 3815.0
22.8291 3796.0
22.8959 3736.0
22.9628 3815.0
23.0296 3835.0
23.0965 4193.0
23.1633 4745.0
23.2302 5009.0
23.297 4822.0
23.3639 4527.0
23.4307 4294.0
23.4975 4349.0
23.5644 4348.0
23.6312 4674.0
23.6981 4856.0
23.7649 5489.0
23.8318 6819.0
23.8986 7990.0
23.9655 9696.0
24.0323 10342.0
24.0991 10208.0
24.166 9471.0
24.2328 7711.0
24.2997 6482.0
24.3665 5503.0
24.4334 4952.0
24.5002 4735.0
24.5671 4373.0
24.6339 4219.0
24.7008 4237.0
24.7676 4181.0
24.8344 4120.0
24.9013 4133.0
24.9681 4136.0
25.035 4144.0
25.1018 4128.0
25.1687 4220.0
25.2355 4497.0
25.3024 4438.0
25.3692 4698.0
25.436 4582.0
25.5029 4616.0
25.5697 4693.0
25.6366 4657.0
25.7034 4695.0
25.7703 4830.0
25.8371 5110.0
25.904 5669.0
25.9708 6547.0
26.0377 7259.0
26.1045 7258.0
26.1713 6577.0
26.2382 6215.0
26.305 6269.0
26.3719 6655.0
26.4387 7131.0
26.5056 7379.0
26.5724 6437.0
26.6393 5773.0
26.7061 4973.0
26.773 4657.0
26.8398 4362.0
26.9066 4379.0
26.9735 4149.0
27.0403 4062.0
27.1072 4089.0
27.174 4193.0
27.2409 4116.0
27.3077 4136.0
27.3746 4168.0
27.4414 4165.0
27.5082 4155.0
27.5751 4317.0
27.6419 4374.0
27.7088 4567.0
27.7756 4959.0
27.8425 5329.0
27.9093 5588.0
27.9762 6065.0
28.043 6215.0
28.1099 6398.0
28.1767 6198.0
28.2435 6020.0
28.3104 5450.0
28.3772 4951.0
28.4441 4637.0
28.5109 4475.0
28.5778 4350.0
28.6446 4360.0
28.7115 4323.0
28.7783 4102.0
28.8451 3996.0
28.912 3983.0
28.9788 3970.0
29.0457 3832.0
29.1125 3967.0
29.1794 3933.0
29.2462 3902.0
29.3131 3862.0
29.3799 4157.0
29.4468 4333.0
29.5136 4435.0
29.5804 4559.0
29.6473 4829.0
29.7141 4993.0
29.781 4847.0
29.8478 4698.0
29.9147 4751.0
29.9815 5088.0
30.0484 5724.0
30.1152 6048.0
30.182 5988.0
30.2489 5491.0
30.3157 5284.0
30.3826 5446.0
30.4494 5622.0
30.5163 5930.0
30.5831 6072.0
30.65 6277.0
30.7168 6220.0
30.7837 6188.0
30.8505 6430.0
30.9173 6352.0
30.9842 6534.0
31.051 7263.0
31.1179 8149.0
31.1847 9384.0
31.2516 10004.0
31.3184 9331.0
31.3853 8130.0
31.4521 6791.0
31.519 6034.0
31.5858 5376.0
31.6526 5086.0
31.7195 4825.0
31.7863 4856.0
31.8532 4992.0
31.92 4791.0
31.9869 4597.0
32.0537 4488.0
32.1206 4479.0
32.1874 4602.0
32.2542 4867.0
32.3211 5178.0
32.3879 5369.0
32.4548 5212.0
32.5216 5237.0
32.5885 5055.0
32.6553 4937.0
32.7222 4781.0
32.789 4679.0
32.8559 4689.0
32.9227 4814.0
32.9895 4959.0
33.0564 4673.0
33.1232 4392.0
33.1901 4294.0
33.2569 4021.0
33.3238 3757.0
33.3906 3541.0
33.4575 3327.0
33.5243 3059.0
33.5911 3102.0
33.658 3016.0
33.7248 3009.0
33.7917 3001.0
33.8585 3077.0
33.9254 2880.0
33.9922 2824.0
34.0591 2793.0
34.1259 2662.0
34.1928 2657.0
34.2596 2622.0
34.3264 2574.0
34.3933 2636.0
34.4601 2713.0
34.527 2677.0
34.5938 2721.0
34.6607 2562.0
34.7275 2579.0
34.7944 2541.0
34.8612 2509.0
34.928 2549.0
34.9949 2585.0
35.0617 2558.0
35.1286 2468.0
35.1954 2424.0
35.2623 2458.0
35.3291 2344.0
35.396 2410.0
35.4628 2390.0
35.5297 2350.0
35.5965 2371.0
35.6633 2335.0
35.7302 2327.0
35.797 2336.0
35.8639 2335.0
35.9307 2322.0
35.9976 2331.0
36.0644 2373.0
36.1313 2407.0
36.1981 2377.0
36.265 2291.0
36.3318 2378.0
36.3986 2370.0
36.4655 2478.0
36.5323 2373.0
36.5992 2353.0
36.666 2317.0
36.7329 2315.0
36.7997 2172.0
36.8666 2136.0
36.9334 2130.0
37.0002 2090.0
37.0671 2013.0
37.1339 2043.0
37.2008 1990.0
37.2676 1986.0
37.3345 2011.0
37.4013 1949.0
37.4682 2062.0
37.535 1959.0
37.6019 1906.0
37.6687 1978.0
37.7355 1906.0
37.8024 1929.0
37.8692 1885.0
37.9361 1847.0
38.0029 1990.0
38.0698 1849.0
38.1366 1883.0
38.2035 1846.0
38.2703 1872.0
38.3371 1885.0
38.404 1839.0
38.4708 1795.0
38.5377 1805.0
38.6045 1839.0
38.6714 1905.0
38.7382 1837.0
38.8051 1883.0
38.8719 1922.0
38.9388 1919.0
39.0056 1943.0
39.0724 2038.0
39.1393 2089.0
39.2061 2079.0
39.273 2071.0
39.3398 2076.0
39.4067 2103.0
39.4735 2126.0
39.5404 2043.0
39.6072 2014.0
39.6741 2068.0
39.7409 2077.0
39.8077 1993.0
39.8746 1953.0
39.9414 1867.0
40.0083 1903.0
40.0751 1904.0
40.142 1870.0
40.2088 1967.0
40.2757 1855.0
40.3425 1910.0
40.4093 1797.0
40.4762 1878.0
40.543 1899.0
40.6099 1798.0
40.6767 1827.0
40.7436 1894.0
40.8104 1860.0
40.8773 1964.0
40.9441 1925.0
41.011 1990.0
41.0778 1905.0
41.1446 1873.0
41.2115 1940.0
41.2783 1952.0
41.3452 1903.0
41.412 1953.0
41.4789 2040.0
41.5457 2173.0
41.6126 1975.0
41.6794 2028.0
41.7462 1837.0
41.8131 2024.0
41.8799 2000.0
41.9468 1935.0
42.0136 1969.0
42.0805 1870.0
42.1473 1953.0
42.2142 1920.0
42.281 1789.0
42.3479 1875.0
42.4147 1864.0
42.4815 1891.0
42.5484 1846.0
42.6152 1781.0
42.6821 1870.0
42.7489 1739.0
42.8158 1796.0
42.8826 1861.0
42.9495 1931.0
43.0163 1818.0
43.0831 1891.0
43.15 1929.0
43.2168 2059.0
43.2837 2016.0
43.3505 2046.0
43.4174 2098.0
43.4842 2185.0
43.5511 1994.0
43.6179 1966.0
43.6848 1984.0
43.7516 1918.0
43.8184 1865.0
43.8853 1859.0
43.9521 1949.0
44.019 1863.0
44.0858 1912.0
44.1527 1865.0
44.2195 1876.0
44.2864 1844.0
44.3532 1751.0
44.4201 1839.0
44.4869 1747.0
44.5537 1813.0
44.6206 1917.0
44.6874 1756.0
44.7543 1826.0
44.8211 1914.0
44.888 1843.0
44.9548 1820.0
45.0217 1844.0
45.0885 1812.0
45.1553 1741.0
45.2222 1735.0
45.289 1790.0
45.3559 1677.0
45.4227 1805.0
45.4896 1778.0
45.5564 1716.0
45.6233 1788.0
45.6901 1796.0
45.757 1777.0
45.8238 1775.0
45.8906 1765.0
45.9575 1641.0
46.0243 1806.0
46.0912 1658.0
46.158 1742.0
46.2249 1749.0
46.2917 1755.0
46.3586 1742.0
46.4254 1671.0
46.4922 1758.0
46.5591 1778.0
46.6259 1677.0
46.6928 1710.0
46.7596 1691.0
46.8265 1725.0
46.8933 1723.0
46.9602 1802.0
47.027 1755.0
47.0939 1768.0
47.1607 1700.0
47.2275 1728.0
47.2944 1764.0
47.3612 1691.0
47.4281 1669.0
47.4949 1739.0
47.5618 1715.0
47.6286 1683.0
47.6955 1671.0
47.7623 1741.0
47.8291 1683.0
47.896 1691.0
47.9628 1655.0
48.0297 1699.0
48.0965 1777.0
48.1634 1801.0
48.2302 1730.0
48.2971 1686.0
48.3639 1768.0
48.4308 1648.0
48.4976 1674.0
48.5644 1724.0
48.6313 1816.0
48.6981 1718.0
48.765 1810.0
48.8318 1750.0
48.8987 1894.0
48.9655 1943.0
49.0324 2043.0
49.0992 2098.0
49.1661 2150.0
49.2329 2035.0
49.2997 2185.0
49.3666 2185.0
49.4334 2269.0
49.5003 2211.0
49.5671 2234.0
49.634 2223.0
49.7008 2101.0
49.7677 2026.0
49.8345 1990.0
49.9013 2038.0
49.9682 1906.0
50.035 2010.0
50.1019 1951.0
50.1687 1830.0
50.2356 1903.0
50.3024 1929.0
50.3693 1948.0
50.4361 1941.0
50.503 1975.0
50.5698 2085.0
50.6366 1959.0
50.7035 1955.0
50.7703 2072.0
50.8372 1969.0
50.904 2092.0
50.9709 1981.0
51.0377 1860.0
51.1046 1884.0
51.1714 2011.0
51.2382 1967.0
51.3051 1871.0
51.3719 1900.0
51.4388 1887.0
51.5056 1896.0
51.5725 1849.0
51.6393 1901.0
51.7062 1801.0
51.773 1813.0
51.8399 1767.0
51.9067 1762.0
51.9735 1824.0
52.0404 1769.0
52.1072 1803.0
52.1741 1693.0
52.2409 1746.0
52.3078 1715.0
52.3746 1686.0
52.4415 1729.0
52.5083 1725.0
52.5751 1821.0
52.642 1722.0
52.7088 1786.0
52.7757 1714.0
52.8425 1741.0
52.9094 1686.0
52.9762 1690.0
53.0431 1694.0
53.1099 1669.0
53.1768 1761.0
53.2436 1680.0
53.3104 1664.0
53.3773 1673.0
53.4441 1767.0
53.511 1716.0
53.5778 1780.0
53.6447 1718.0
53.7115 1733.0
53.7784 1661.0
53.8452 1757.0
53.9121 1656.0
53.9789 1714.0
54.0457 1638.0
54.1126 1680.0
54.1794 1685.0
54.2463 1641.0
54.3131 1650.0
54.38 1594.0
54.4468 1698.0
54.5137 1641.0
54.5805 1650.0
54.6473 1596.0
54.7142 1650.0
54.781 1679.0
54.8479 1590.0
54.9147 1645.0
54.9816 1650.0
55.0484 1643.0
55.1153 1600.0
55.1821 1627.0
55.249 1631.0
55.3158 1691.0
55.3826 1712.0
55.4495 1738.0
55.5163 1753.0
55.5832 1755.0
55.65 1778.0
55.7169 1748.0
55.7837 1768.0
55.8506 1836.0
55.9174 1773.0
55.9842 1811.0
56.0511 1810.0
56.1179 1734.0
56.1848 1814.0
56.2516 1835.0
56.3185 1689.0
56.3853 1734.0
56.4522 1595.0
56.519 1691.0
56.5859 1757.0
56.6527 1652.0
56.7195 1680.0
56.7864 1618.0
56.8532 1642.0
56.9201 1677.0
56.9869 1614.0
57.0538 1537.0
57.1206 1612.0
57.1875 1566.0
57.2543 1551.0
57.3212 1579.0
57.388 1454.0
57.4548 1552.0
57.5217 1528.0
57.5885 1557.0
57.6554 1433.0
57.7222 1455.0
57.7891 1466.0
57.8559 1475.0
57.9228 1504.0
57.9896 1500.0
58.0564 1470.0
58.1233 1461.0
58.1901 1516.0
58.257 1383.0
58.3238 1482.0
58.3907 1412.0
58.4575 1425.0
58.5244 1414.0
58.5912 1492.0
58.6581 1477.0
58.7249 1527.0
58.7917 1429.0
58.8586 1509.0
58.9254 1426.0
58.9923 1476.0
59.0591 1468.0
59.126 1502.0
59.1928 1534.0
59.2597 1510.0
59.3265 1543.0
59.3933 1576.0
59.4602 1612.0
59.527 1663.0
59.5939 1550.0
59.6607 1586.0
59.7276 1629.0
59.7944 1636.0
59.8613 1610.0
59.9281 1589.0
59.995 1551.0
60.0618 1582.0
60.1286 1599.0
60.1955 1519.0
60.2623 1481.0
60.3292 1505.0
60.396 1540.0
60.4629 1441.0
60.5297 1510.0
60.5966 1559.0
60.6634 1582.0
60.7302 1507.0
60.7971 1572.0
60.8639 1560.0
60.9308 1561.0
60.9976 1550.0
61.0645 1553.0
61.1313 1482.0
61.1982 1480.0
61.265 1504.0
61.3319 1552.0
61.3987 1511.0
61.4655 1456.0
61.5324 1457.0
61.5992 1446.0
61.6661 1574.0
61.7329 1505.0
61.7998 1572.0
61.8666 1458.0
61.9335 1491.0
62.0003 1526.0
62.0672 1446.0
62.134 1354.0
62.2008 1382.0
62.2677 1493.0
62.3345 1494.0
62.4014 1421.0
62.4682 1408.0
62.5351 1428.0
62.6019 1351.0
62.6688 1438.0
62.7356 1400.0
62.8024 1459.0
62.8693 1440.0
62.9361 1382.0
63.003 1457.0
63.0698 1382.0
63.1367 1447.0
63.2035 1383.0
63.2704 1395.0
63.3372 1394.0
63.4041 1460.0
63.4709 1444.0
63.5377 1429.0
63.6046 1545.0
63.6714 1489.0
63.7383 1506.0
63.8051 1479.0
63.872 1454.0
63.9388 1478.0
64.0057 1506.0
64.0725 1408.0
64.1393 1415.0
64.2062 1451.0
64.273 1466.0
64.3399 1442.0
64.4067 1472.0
64.4736 1480.0
64.5404 1412.0
64.6073 1426.0
64.6741 1397.0
64.741 1477.0
64.8078 1417.0
64.8746 1442.0
64.9415 1347.0
65.0083 1380.0
65.0752 1439.0
65.142 1347.0
65.2089 1410.0
65.2757 1389.0
65.3426 1471.0
65.4094 1446.0
65.4762 1379.0
65.5431 1363.0
65.6099 1433.0
65.6768 1471.0
65.7436 1338.0
65.8105 1301.0
65.8773 1376.0
65.9442 1367.0
66.011 1390.0
66.0779 1442.0
66.1447 1329.0
66.2115 1421.0
66.2784 1416.0
66.3452 1432.0
66.4121 1470.0
66.4789 1429.0
66.5458 1395.0
66.6126 1378.0
66.6795 1472.0
66.7463 1442.0
66.8132 1490.0
66.88 1519.0
66.9468 1451.0
67.0137 1529.0
67.0805 1543.0
67.1474 1549.0
67.2142 1568.0
67.2811 1570.0
67.3479 1546.0
67.4148 1488.0
67.4816 1469.0
67.5484 1443.0
67.6153 1442.0
67.6821 1415.0
67.749 1429.0
67.8158 1354.0
67.8827 1402.0
67.9495 1394.0
68.0164 1312.0
68.0832 1339.0
68.1501 1321.0
68.2169 1392.0
68.2837 1355.0
68.3506 1295.0
68.4174 1368.0
68.4843 1358.0
68.5511 1349.0
68.618 1340.0
68.6848 1324.0
68.7517 1354.0
68.8185 1436.0
68.8853 1333.0
68.9522 1326.0
69.019 1388.0
69.0859 1228.0
69.1527 1366.0
69.2196 1294.0
69.2864 1375.0
69.3533 1334.0
69.4201 1339.0
69.487 1337.0
69.5538 1280.0
69.6206 1315.0
69.6875 1349.0
69.7543 1290.0
69.8212 1283.0
69.888 1329.0
69.9549 1329.0
70.0217 1300.0
70.0886 1417.0
70.1554 1363.0
70.2222 1314.0
70.2891 1358.0
70.3559 1461.0
70.4228 1493.0
70.4896 1421.0
70.5565 1475.0
70.6233 1407.0
70.6902 1428.0
70.757 1465.0
70.8239 1404.0
70.8907 1338.0
70.9575 1363.0
71.0244 1285.0
71.0912 1331.0
71.1581 1368.0
71.2249 1330.0
71.2918 1296.0
71.3586 1312.0
71.4255 1314.0
71.4923 1315.0
71.5592 1259.0
71.626 1272.0
71.6928 1306.0
71.7597 1245.0
71.8265 1290.0
71.8934 1242.0
71.9602 1313.0
72.0271 1243.0
72.0939 1234.0
72.1608 1276.0
72.2276 1201.0
72.2944 1257.0
72.3613 1283.0
72.4281 1240.0
72.495 1218.0
72.5618 1300.0
72.6287 1267.0
72.6955 1253.0
72.7624 1230.0
72.8292 1223.0
72.8961 1270.0
72.9629 1311.0
73.0297 1333.0
73.0966 1260.0
73.1634 1353.0
73.2303 1237.0
73.2971 1272.0
73.364 1225.0
73.4308 1301.0
73.4977 1260.0
73.5645 1330.0
73.6313 1312.0
73.6982 1284.0
73.765 1243.0
73.8319 1214.0
73.8987 1270.0
73.9656 1249.0
74.0324 1264.0
74.0993 1209.0
74.1661 1168.0
74.233 1153.0
74.2998 1235.0
74.3666 1218.0
74.4335 1164.0
74.5003 1172.0
74.5672 1122.0
74.634 1153.0
74.7009 1204.0
74.7677 1158.0
74.8346 1273.0
74.9014 1224.0
74.9683 1166.0
75.0351 1193.0
75.1019 1125.0
75.1688 1170.0
75.2356 1198.0
75.3025 1164.0
75.3693 1161.0
75.4362 1225.0
75.503 1185.0
75.5699 1257.0
75.6367 1166.0
75.7035 1130.0
75.7704 1198.0
75.8372 1147.0
75.9041 1167.0
75.9709 1197.0
76.0378 1153.0
76.1046 1187.0
76.1715 1199.0
76.2383 1159.0
76.3052 1151.0
76.372 1171.0
76.4388 1168.0
76.5057 1112.0
76.5725 1215.0
76.6394 1051.0
76.7062 1126.0
76.7731 1096.0
76.8399 1172.0
76.9068 1079.0
76.9736 1132.0
77.0404 1143.0
77.1073 1109.0
77.1741 1068.0
77.241 1130.0
77.3078 1150.0
77.3747 1081.0
77.4415 1070.0
77.5084 1088.0
77.5752 1069.0
77.6421 1101.0
77.7089 1054.0
77.7757 1145.0
77.8426 1070.0
77.9094 1093.0
77.9763 1074.0
78.0431 1182.0
78.11 1126.0
78.1768 1118.0
78.2437 1089.0
78.3105 1073.0
78.3773 1069.0
78.4442 1028.0
78.511 1113.0
78.5779 972.0
78.6447 1065.0
78.7116 1074.0
78.7784 1035.0
78.8453 1047.0
78.9121 1051.0
78.979 1046.0
79.0458 991.0
79.1126 983.0
79.1795 951.0
79.2463 1005.0
79.3132 1016.0
79.38 955.0
79.4469 1028.0
79.5137 1057.0
79.5806 999.0
79.6474 951.0
79.7143 1014.0
79.7811 996.0
79.8479 1000.0
79.9148 1027.0
79.9816 1028.0
80.0485 946.0
80.1153 965.0
80.1822 1002.0
80.249 940.0
80.3159 976.0
80.3827 957.0
80.4495 977.0
80.5164 988.0
80.5832 951.0
80.6501 976.0
80.7169 908.0
80.7838 946.0
80.8506 992.0
80.9175 1033.0
80.9843 949.0
81.0512 990.0
81.118 904.0
81.1848 985.0
81.2517 972.0
81.3185 972.0
81.3854 941.0
81.4522 951.0
81.5191 917.0
81.5859 882.0
81.6528 962.0
81.7196 936.0
81.7864 885.0
81.8533 866.0
81.9201 936.0
81.987 883.0
82.0538 884.0
82.1207 884.0
82.1875 923.0
82.2544 857.0
82.3212 904.0
82.3881 892.0
82.4549 898.0
82.5217 875.0
82.5886 890.0
82.6554 867.0
82.7223 835.0
82.7891 846.0
82.856 870.0
82.9228 869.0
82.9897 845.0
83.0565 819.0
83.1233 901.0
83.1902 868.0
83.257 881.0
83.3239 888.0
83.3907 890.0
83.4576 861.0
83.5244 865.0
83.5913 835.0
83.6581 864.0
83.725 924.0
83.7918 857.0
83.8586 826.0
83.9255 878.0
83.9923 849.0
84.0592 795.0
84.126 801.0
84.1929 812.0
84.2597 840.0
84.3266 819.0
84.3934 826.0
84.4603 813.0
84.5271 823.0
84.5939 820.0
84.6608 813.0
84.7276 809.0
84.7945 810.0
84.8613 791.0
84.9282 769.0
84.995 834.0
85.0619 846.0
85.1287 771.0
85.1955 811.0
85.2624 784.0
85.3292 842.0
85.3961 802.0
85.4629 764.0
85.5298 709.0
85.5966 826.0
85.6635 792.0
85.7303 812.0
85.7972 812.0
85.864 812.0
85.9308 753.0
85.9977 772.0
86.0645 732.0
86.1314 736.0
86.1982 769.0
86.2651 747.0
86.3319 776.0
86.3988 814.0
86.4656 726.0
86.5324 750.0
86.5993 738.0
86.6661 764.0
86.733 714.0
86.7998 748.0
86.8667 781.0
86.9335 739.0
87.0004 726.0
87.0672 731.0
87.1341 727.0
87.2009 761.0
87.2677 756.0
87.3346 743.0
87.4014 754.0
87.4683 804.0
87.5351 686.0
87.602 683.0
87.6688 711.0
87.7357 687.0
87.8025 718.0
87.8693 731.0
87.9362 756.0
88.003 678.0
88.0699 698.0
88.1367 712.0
88.2036 707.0
88.2704 719.0
88.3373 730.0
88.4041 672.0
88.471 670.0
88.5378 738.0
88.6046 744.0
88.6715 729.0
88.7383 746.0
88.8052 708.0
88.872 748.0
88.9389 719.0
89.0057 740.0
89.0726 770.0
89.1394 689.0
89.2063 676.0
89.2731 655.0
89.3399 694.0
89.4068 693.0
89.4736 714.0
89.5405 707.0
89.6073 703.0
89.6742 672.0
89.741 617.0
89.8079 686.0
89.8747 691.0
89.9415 719.0
89.9583 658.0