File: code/XRD_Analysis/External Sources/Alex_SAPO/20230107_SAPO-18_230105_2_calc550C.xy
4.98146 1516.0
5.0483 1539.0
5.11515 1503.0
5.18199 1538.0
5.24884 1453.0
5.31568 1429.0
5.38253 1461.0
5.44937 1453.0
5.51622 1390.0
5.58306 1369.0
5.64991 1362.0
5.71675 1364.0
5.7836 1245.0
5.85044 1340.0
5.91729 1260.0
5.98413 1265.0
6.05098 1190.0
6.11782 1204.0
6.18467 1144.0
6.25151 1193.0
6.31836 1212.0
6.3852 1078.0
6.45205 1164.0
6.51889 1173.0
6.58574 1167.0
6.65258 1119.0
6.71943 1126.0
6.78627 1071.0
6.85312 1104.0
6.91996 1059.0
6.98681 1102.0
7.05365 1027.0
7.1205 981.0
7.18734 1059.0
7.25419 1044.0
7.32103 1063.0
7.38788 1010.0
7.45472 1073.0
7.52157 973.0
7.58841 1003.0
7.65526 984.0
7.7221 953.0
7.78895 996.0
7.85579 986.0
7.92264 950.0
7.98948 950.0
8.05633 1004.0
8.12317 955.0
8.19002 907.0
8.25686 948.0
8.32371 942.0
8.39055 982.0
8.4574 911.0
8.52424 920.0
8.59109 861.0
8.65793 985.0
8.72478 965.0
8.79162 1011.0
8.85847 1001.0
8.92532 956.0
8.99216 1006.0
9.05901 1105.0
9.12585 1146.0
9.1927 1393.0
9.25954 1529.0
9.32639 2345.0
9.39323 3889.0
9.46008 7631.0
9.52692 11674.0
9.59377 8822.0
9.66061 5466.0
9.72746 2890.0
9.7943 1915.0
9.86115 1426.0
9.92799 1259.0
9.99484 1203.0
10.0617 1126.0
10.1285 1059.0
10.1954 1003.0
10.2622 1066.0
10.3291 1071.0
10.3959 1109.0
10.4628 1395.0
10.5296 1796.0
10.5964 2308.0
10.6633 2497.0
10.7301 2214.0
10.797 1566.0
10.8638 1258.0
10.9307 1080.0
10.9975 1018.0
11.0644 941.0
11.1312 881.0
11.198 813.0
11.2649 870.0
11.3317 734.0
11.3986 824.0
11.4654 782.0
11.5323 790.0
11.5991 795.0
11.666 709.0
11.7328 808.0
11.7997 774.0
11.8665 730.0
11.9333 751.0
12.0002 779.0
12.067 744.0
12.1339 766.0
12.2007 746.0
12.2676 722.0
12.3344 772.0
12.4013 735.0
12.4681 748.0
12.5349 802.0
12.6018 881.0
12.6686 847.0
12.7355 1004.0
12.8023 1386.0
12.8692 2091.0
12.936 2695.0
13.0029 1945.0
13.0697 1310.0
13.1366 961.0
13.2034 901.0
13.2702 863.0
13.3371 898.0
13.4039 1031.0
13.4708 1252.0
13.5376 1419.0
13.6045 1220.0
13.6713 1073.0
13.7382 868.0
13.805 800.0
13.8719 789.0
13.9387 835.0
14.0055 917.0
14.0724 850.0
14.1392 788.0
14.2061 724.0
14.2729 690.0
14.3398 740.0
14.4066 676.0
14.4735 752.0
14.5403 772.0
14.6071 752.0
14.674 710.0
14.7408 788.0
14.8077 793.0
14.8745 792.0
14.9414 748.0
15.0082 713.0
15.0751 763.0
15.1419 728.0
15.2088 699.0
15.2756 752.0
15.3424 722.0
15.4093 744.0
15.4761 738.0
15.543 783.0
15.6098 769.0
15.6767 769.0
15.7435 841.0
15.8104 823.0
15.8772 976.0
15.944 1164.0
16.0109 1558.0
16.0777 1989.0
16.1446 2171.0
16.2114 1902.0
16.2783 1490.0
16.3451 1158.0
16.412 1015.0
16.4788 940.0
16.5457 931.0
16.6125 979.0
16.6793 1038.0
16.7462 1193.0
16.813 1425.0
16.8799 1969.0
16.9467 2852.0
17.0136 3703.0
17.0804 3398.0
17.1473 2729.0
17.2141 2483.0
17.2809 2527.0
17.3478 2282.0
17.4146 1877.0
17.4815 1691.0
17.5483 1413.0
17.6152 1204.0
17.682 1110.0
17.7489 1063.0
17.8157 954.0
17.8826 967.0
17.9494 917.0
18.0162 928.0
18.0831 950.0
18.1499 900.0
18.2168 915.0
18.2836 832.0
18.3505 844.0
18.4173 871.0
18.4842 842.0
18.551 866.0
18.6179 857.0
18.6847 893.0
18.7515 881.0
18.8184 896.0
18.8852 988.0
18.9521 995.0
19.0189 1138.0
19.0858 1418.0
19.1526 1500.0
19.2195 1282.0
19.2863 1169.0
19.3531 1110.0
19.42 1057.0
19.4868 971.0
19.5537 1123.0
19.6205 1231.0
19.6874 1470.0
19.7542 1486.0
19.8211 1396.0
19.8879 1212.0
19.9548 1260.0
20.0216 1410.0
20.0884 1541.0
20.1553 1743.0
20.2221 1728.0
20.289 1616.0
20.3558 1406.0
20.4227 1373.0
20.4895 1440.0
20.5564 1903.0
20.6232 2511.0
20.69 3047.0
20.7569 2764.0
20.8237 2015.0
20.8906 1645.0
20.9574 1355.0
21.0243 1412.0
21.0911 1414.0
21.158 1671.0
21.2248 1789.0
21.2917 2004.0
21.3585 2228.0
21.4253 2520.0
21.4922 2765.0
21.559 2518.0
21.6259 1926.0
21.6927 1535.0
21.7596 1282.0
21.8264 1222.0
21.8933 1195.0
21.9601 1147.0
22.0269 1193.0
22.0938 1138.0
22.1606 1158.0
22.2275 1143.0
22.2943 1120.0
22.3612 1167.0
22.428 1093.0
22.4949 1239.0
22.5617 1324.0
22.6286 1410.0
22.6954 1372.0
22.7622 1272.0
22.8291 1244.0
22.8959 1227.0
22.9628 1337.0
23.0296 1288.0
23.0965 1387.0
23.1633 1548.0
23.2302 1649.0
23.297 1580.0
23.3639 1480.0
23.4307 1359.0
23.4975 1332.0
23.5644 1404.0
23.6312 1488.0
23.6981 1578.0
23.7649 1773.0
23.8318 2133.0
23.8986 2737.0
23.9655 3366.0
24.0323 3568.0
24.0991 3715.0
24.166 3193.0
24.2328 2586.0
24.2997 2079.0
24.3665 1852.0
24.4334 1554.0
24.5002 1563.0
24.5671 1396.0
24.6339 1344.0
24.7008 1395.0
24.7676 1303.0
24.8344 1425.0
24.9013 1340.0
24.9681 1386.0
25.035 1305.0
25.1018 1304.0
25.1687 1368.0
25.2355 1453.0
25.3024 1526.0
25.3692 1548.0
25.436 1555.0
25.5029 1563.0
25.5697 1575.0
25.6366 1543.0
25.7034 1582.0
25.7703 1565.0
25.8371 1669.0
25.904 2004.0
25.9708 2301.0
26.0377 2505.0
26.1045 2353.0
26.1713 2223.0
26.2382 2116.0
26.305 2072.0
26.3719 2391.0
26.4387 2360.0
26.5056 2458.0
26.5724 2249.0
26.6393 1942.0
26.7061 1642.0
26.773 1503.0
26.8398 1493.0
26.9066 1343.0
26.9735 1401.0
27.0403 1394.0
27.1072 1428.0
27.174 1359.0
27.2409 1460.0
27.3077 1439.0
27.3746 1403.0
27.4414 1457.0
27.5082 1469.0
27.5751 1462.0
27.6419 1568.0
27.7088 1540.0
27.7756 1751.0
27.8425 1761.0
27.9093 1993.0
27.9762 2119.0
28.043 2196.0
28.1099 2257.0
28.1767 2203.0
28.2435 2069.0
28.3104 1903.0
28.3772 1760.0
28.4441 1575.0
28.5109 1453.0
28.5778 1505.0
28.6446 1457.0
28.7115 1400.0
28.7783 1370.0
28.8451 1345.0
28.912 1357.0
28.9788 1308.0
29.0457 1363.0
29.1125 1269.0
29.1794 1330.0
29.2462 1316.0
29.3131 1378.0
29.3799 1494.0
29.4468 1487.0
29.5136 1507.0
29.5804 1659.0
29.6473 1745.0
29.7141 1790.0
29.781 1630.0
29.8478 1619.0
29.9147 1728.0
29.9815 1828.0
30.0484 1963.0
30.1152 2101.0
30.182 1887.0
30.2489 1901.0
30.3157 1771.0
30.3826 1923.0
30.4494 1923.0
30.5163 1980.0
30.5831 1971.0
30.65 2006.0
30.7168 2180.0
30.7837 2135.0
30.8505 2146.0
30.9173 2177.0
30.9842 2298.0
31.051 2526.0
31.1179 2964.0
31.1847 3369.0
31.2516 3493.0
31.3184 3313.0
31.3853 2750.0
31.4521 2346.0
31.519 1894.0
31.5858 1761.0
31.6526 1798.0
31.7195 1580.0
31.7863 1738.0
31.8532 1758.0
31.92 1680.0
31.9869 1687.0
32.0537 1538.0
32.1206 1523.0
32.1874 1495.0
32.2542 1625.0
32.3211 1839.0
32.3879 1960.0
32.4548 1969.0
32.5216 1774.0
32.5885 1630.0
32.6553 1704.0
32.7222 1659.0
32.789 1625.0
32.8559 1659.0
32.9227 1688.0
32.9895 1749.0
33.0564 1710.0
33.1232 1616.0
33.1901 1504.0
33.2569 1411.0
33.3238 1339.0
33.3906 1215.0
33.4575 1159.0
33.5243 1116.0
33.5911 1027.0
33.658 1045.0
33.7248 1060.0
33.7917 1094.0
33.8585 1038.0
33.9254 1036.0
33.9922 981.0
34.0591 1008.0
34.1259 965.0
34.1928 913.0
34.2596 883.0
34.3264 935.0
34.3933 945.0
34.4601 1002.0
34.527 948.0
34.5938 977.0
34.6607 933.0
34.7275 880.0
34.7944 909.0
34.8612 873.0
34.928 863.0
34.9949 913.0
35.0617 897.0
35.1286 902.0
35.1954 821.0
35.2623 847.0
35.3291 868.0
35.396 790.0
35.4628 888.0
35.5297 852.0
35.5965 830.0
35.6633 795.0
35.7302 845.0
35.797 804.0
35.8639 783.0
35.9307 797.0
35.9976 794.0
36.0644 785.0
36.1313 830.0
36.1981 801.0
36.265 886.0
36.3318 740.0
36.3986 883.0
36.4655 847.0
36.5323 869.0
36.5992 851.0
36.666 797.0
36.7329 778.0
36.7997 720.0
36.8666 775.0
36.9334 738.0
37.0002 698.0
37.0671 724.0
37.1339 755.0
37.2008 667.0
37.2676 786.0
37.3345 688.0
37.4013 719.0
37.4682 725.0
37.535 704.0
37.6019 708.0
37.6687 656.0
37.7355 657.0
37.8024 633.0
37.8692 581.0
37.9361 656.0
38.0029 668.0
38.0698 630.0
38.1366 659.0
38.2035 654.0
38.2703 633.0
38.3371 661.0
38.404 646.0
38.4708 673.0
38.5377 639.0
38.6045 611.0
38.6714 634.0
38.7382 642.0
38.8051 638.0
38.8719 722.0
38.9388 692.0
39.0056 723.0
39.0724 682.0
39.1393 714.0
39.2061 694.0
39.273 781.0
39.3398 709.0
39.4067 758.0
39.4735 758.0
39.5404 715.0
39.6072 740.0
39.6741 675.0
39.7409 684.0
39.8077 707.0
39.8746 690.0
39.9414 732.0
40.0083 658.0
40.0751 664.0
40.142 688.0
40.2088 637.0
40.2757 662.0
40.3425 658.0
40.4093 704.0
40.4762 658.0
40.543 692.0
40.6099 664.0
40.6767 656.0
40.7436 668.0
40.8104 614.0
40.8773 658.0
40.9441 694.0
41.011 696.0
41.0778 638.0
41.1446 653.0
41.2115 708.0
41.2783 725.0
41.3452 684.0
41.412 711.0
41.4789 731.0
41.5457 668.0
41.6126 722.0
41.6794 747.0
41.7462 750.0
41.8131 673.0
41.8799 707.0
41.9468 725.0
42.0136 682.0
42.0805 720.0
42.1473 725.0
42.2142 684.0
42.281 704.0
42.3479 646.0
42.4147 630.0
42.4815 619.0
42.5484 649.0
42.6152 646.0
42.6821 605.0
42.7489 656.0
42.8158 599.0
42.8826 602.0
42.9495 660.0
43.0163 725.0
43.0831 663.0
43.15 642.0
43.2168 747.0
43.2837 760.0
43.3505 741.0
43.4174 740.0
43.4842 742.0
43.5511 667.0
43.6179 708.0
43.6848 695.0
43.7516 605.0
43.8184 695.0
43.8853 677.0
43.9521 679.0
44.019 642.0
44.0858 651.0
44.1527 588.0
44.2195 651.0
44.2864 662.0
44.3532 642.0
44.4201 627.0
44.4869 685.0
44.5537 693.0
44.6206 681.0
44.6874 635.0
44.7543 649.0
44.8211 678.0
44.888 676.0
44.9548 672.0
45.0217 618.0
45.0885 698.0
45.1553 679.0
45.2222 635.0
45.289 660.0
45.3559 689.0
45.4227 700.0
45.4896 625.0
45.5564 614.0
45.6233 603.0
45.6901 586.0
45.757 627.0
45.8238 589.0
45.8906 627.0
45.9575 630.0
46.0243 633.0
46.0912 633.0
46.158 582.0
46.2249 645.0
46.2917 585.0
46.3586 614.0
46.4254 591.0
46.4922 641.0
46.5591 598.0
46.6259 642.0
46.6928 686.0
46.7596 625.0
46.8265 622.0
46.8933 590.0
46.9602 621.0
47.027 563.0
47.0939 623.0
47.1607 638.0
47.2275 610.0
47.2944 634.0
47.3612 633.0
47.4281 615.0
47.4949 618.0
47.5618 611.0
47.6286 583.0
47.6955 669.0
47.7623 575.0
47.8291 582.0
47.896 552.0
47.9628 585.0
48.0297 607.0
48.0965 588.0
48.1634 600.0
48.2302 584.0
48.2971 606.0
48.3639 680.0
48.4308 598.0
48.4976 596.0
48.5644 638.0
48.6313 580.0
48.6981 611.0
48.765 656.0
48.8318 584.0
48.8987 638.0
48.9655 678.0
49.0324 714.0
49.0992 698.0
49.1661 810.0
49.2329 786.0
49.2997 788.0
49.3666 751.0
49.4334 808.0
49.5003 797.0
49.5671 782.0
49.634 711.0
49.7008 715.0
49.7677 706.0
49.8345 717.0
49.9013 721.0
49.9682 750.0
50.035 706.0
50.1019 621.0
50.1687 663.0
50.2356 698.0
50.3024 663.0
50.3693 664.0
50.4361 689.0
50.503 690.0
50.5698 651.0
50.6366 738.0
50.7035 734.0
50.7703 696.0
50.8372 690.0
50.904 653.0
50.9709 665.0
51.0377 646.0
51.1046 653.0
51.1714 683.0
51.2382 721.0
51.3051 680.0
51.3719 696.0
51.4388 712.0
51.5056 680.0
51.5725 659.0
51.6393 667.0
51.7062 625.0
51.773 617.0
51.8399 670.0
51.9067 606.0
51.9735 621.0
52.0404 621.0
52.1072 585.0
52.1741 612.0
52.2409 522.0
52.3078 579.0
52.3746 617.0
52.4415 598.0
52.5083 594.0
52.5751 598.0
52.642 567.0
52.7088 637.0
52.7757 617.0
52.8425 633.0
52.9094 602.0
52.9762 575.0
53.0431 579.0
53.1099 589.0
53.1768 603.0
53.2436 610.0
53.3104 604.0
53.3773 581.0
53.4441 576.0
53.511 604.0
53.5778 616.0
53.6447 648.0
53.7115 584.0
53.7784 629.0
53.8452 667.0
53.9121 603.0
53.9789 553.0
54.0457 580.0
54.1126 600.0
54.1794 600.0
54.2463 605.0
54.3131 625.0
54.38 561.0
54.4468 536.0
54.5137 606.0
54.5805 627.0
54.6473 660.0
54.7142 551.0
54.781 573.0
54.8479 580.0
54.9147 589.0
54.9816 564.0
55.0484 555.0
55.1153 606.0
55.1821 582.0
55.249 589.0
55.3158 572.0
55.3826 619.0
55.4495 615.0
55.5163 627.0
55.5832 630.0
55.65 612.0
55.7169 678.0
55.7837 633.0
55.8506 651.0
55.9174 668.0
55.9842 630.0
56.0511 646.0
56.1179 596.0
56.1848 570.0
56.2516 616.0
56.3185 583.0
56.3853 572.0
56.4522 550.0
56.519 625.0
56.5859 609.0
56.6527 585.0
56.7195 589.0
56.7864 600.0
56.8532 537.0
56.9201 550.0
56.9869 536.0
57.0538 542.0
57.1206 600.0
57.1875 542.0
57.2543 576.0
57.3212 559.0
57.388 570.0
57.4548 548.0
57.5217 578.0
57.5885 539.0
57.6554 584.0
57.7222 508.0
57.7891 544.0
57.8559 498.0
57.9228 534.0
57.9896 532.0
58.0564 524.0
58.1233 509.0
58.1901 516.0
58.257 501.0
58.3238 475.0
58.3907 506.0
58.4575 508.0
58.5244 491.0
58.5912 517.0
58.6581 566.0
58.7249 574.0
58.7917 480.0
58.8586 533.0
58.9254 503.0
58.9923 519.0
59.0591 521.0
59.126 579.0
59.1928 565.0
59.2597 552.0
59.3265 534.0
59.3933 541.0
59.4602 559.0
59.527 575.0
59.5939 598.0
59.6607 576.0
59.7276 591.0
59.7944 590.0
59.8613 578.0
59.9281 607.0
59.995 601.0
60.0618 568.0
60.1286 528.0
60.1955 514.0
60.2623 560.0
60.3292 497.0
60.396 585.0
60.4629 545.0
60.5297 541.0
60.5966 566.0
60.6634 558.0
60.7302 516.0
60.7971 554.0
60.8639 570.0
60.9308 526.0
60.9976 514.0
61.0645 542.0
61.1313 541.0
61.1982 539.0
61.265 513.0
61.3319 558.0
61.3987 519.0
61.4655 487.0
61.5324 525.0
61.5992 523.0
61.6661 547.0
61.7329 524.0
61.7998 547.0
61.8666 539.0
61.9335 532.0
62.0003 503.0
62.0672 512.0
62.134 528.0
62.2008 497.0
62.2677 506.0
62.3345 505.0
62.4014 536.0
62.4682 514.0
62.5351 491.0
62.6019 584.0
62.6688 478.0
62.7356 514.0
62.8024 533.0
62.8693 528.0
62.9361 502.0
63.003 523.0
63.0698 523.0
63.1367 518.0
63.2035 513.0
63.2704 500.0
63.3372 493.0
63.4041 519.0
63.4709 491.0
63.5377 495.0
63.6046 539.0
63.6714 511.0
63.7383 538.0
63.8051 543.0
63.872 544.0
63.9388 548.0
64.0057 527.0
64.0725 543.0
64.1393 504.0
64.2062 503.0
64.273 496.0
64.3399 553.0
64.4067 520.0
64.4736 465.0
64.5404 541.0
64.6073 533.0
64.6741 481.0
64.741 460.0
64.8078 534.0
64.8746 561.0
64.9415 524.0
65.0083 549.0
65.0752 524.0
65.142 539.0
65.2089 554.0
65.2757 469.0
65.3426 498.0
65.4094 505.0
65.4762 523.0
65.5431 488.0
65.6099 459.0
65.6768 506.0
65.7436 496.0
65.8105 495.0
65.8773 493.0
65.9442 560.0
66.011 509.0
66.0779 532.0
66.1447 529.0
66.2115 519.0
66.2784 426.0
66.3452 533.0
66.4121 486.0
66.4789 503.0
66.5458 508.0
66.6126 492.0
66.6795 528.0
66.7463 553.0
66.8132 540.0
66.88 491.0
66.9468 520.0
67.0137 564.0
67.0805 522.0
67.1474 552.0
67.2142 549.0
67.2811 536.0
67.3479 553.0
67.4148 561.0
67.4816 570.0
67.5484 534.0
67.6153 516.0
67.6821 518.0
67.749 476.0
67.8158 513.0
67.8827 500.0
67.9495 489.0
68.0164 482.0
68.0832 489.0
68.1501 486.0
68.2169 493.0
68.2837 487.0
68.3506 500.0
68.4174 472.0
68.4843 453.0
68.5511 481.0
68.618 492.0
68.6848 475.0
68.7517 486.0
68.8185 423.0
68.8853 464.0
68.9522 500.0
69.019 457.0
69.0859 443.0
69.1527 489.0
69.2196 492.0
69.2864 465.0
69.3533 453.0
69.4201 461.0
69.487 494.0
69.5538 464.0
69.6206 486.0
69.6875 509.0
69.7543 451.0
69.8212 545.0
69.888 462.0
69.9549 454.0
70.0217 485.0
70.0886 478.0
70.1554 529.0
70.2222 503.0
70.2891 500.0
70.3559 492.0
70.4228 489.0
70.4896 554.0
70.5565 509.0
70.6233 540.0
70.6902 531.0
70.757 514.0
70.8239 519.0
70.8907 528.0
70.9575 520.0
71.0244 488.0
71.0912 457.0
71.1581 473.0
71.2249 455.0
71.2918 492.0
71.3586 440.0
71.4255 448.0
71.4923 442.0
71.5592 500.0
71.626 467.0
71.6928 502.0
71.7597 429.0
71.8265 472.0
71.8934 426.0
71.9602 466.0
72.0271 434.0
72.0939 467.0
72.1608 474.0
72.2276 450.0
72.2944 464.0
72.3613 449.0
72.4281 412.0
72.495 427.0
72.5618 486.0
72.6287 420.0
72.6955 455.0
72.7624 439.0
72.8292 451.0
72.8961 446.0
72.9629 459.0
73.0297 478.0
73.0966 447.0
73.1634 456.0
73.2303 375.0
73.2971 465.0
73.364 453.0
73.4308 398.0
73.4977 466.0
73.5645 432.0
73.6313 411.0
73.6982 439.0
73.765 442.0
73.8319 420.0
73.8987 447.0
73.9656 445.0
74.0324 450.0
74.0993 415.0
74.1661 439.0
74.233 413.0
74.2998 409.0
74.3666 444.0
74.4335 439.0
74.5003 424.0
74.5672 443.0
74.634 406.0
74.7009 454.0
74.7677 417.0
74.8346 407.0
74.9014 438.0
74.9683 414.0
75.0351 417.0
75.1019 389.0
75.1688 427.0
75.2356 394.0
75.3025 429.0
75.3693 422.0
75.4362 474.0
75.503 366.0
75.5699 407.0
75.6367 418.0
75.7035 449.0
75.7704 383.0
75.8372 422.0
75.9041 403.0
75.9709 398.0
76.0378 431.0
76.1046 415.0
76.1715 425.0
76.2383 429.0
76.3052 420.0
76.372 426.0
76.4388 403.0
76.5057 413.0
76.5725 450.0
76.6394 438.0
76.7062 398.0
76.7731 433.0
76.8399 353.0
76.9068 414.0
76.9736 396.0
77.0404 399.0
77.1073 379.0
77.1741 411.0
77.241 413.0
77.3078 376.0
77.3747 371.0
77.4415 410.0
77.5084 403.0
77.5752 397.0
77.6421 417.0
77.7089 336.0
77.7757 378.0
77.8426 411.0
77.9094 363.0
77.9763 384.0
78.0431 391.0
78.11 388.0
78.1768 411.0
78.2437 393.0
78.3105 370.0
78.3773 358.0
78.4442 356.0
78.511 349.0
78.5779 365.0
78.6447 348.0
78.7116 396.0
78.7784 341.0
78.8453 400.0
78.9121 392.0
78.979 355.0
79.0458 392.0
79.1126 386.0
79.1795 386.0
79.2463 357.0
79.3132 344.0
79.38 410.0
79.4469 389.0
79.5137 341.0
79.5806 361.0
79.6474 358.0
79.7143 338.0
79.7811 351.0
79.8479 339.0
79.9148 352.0
79.9816 355.0
80.0485 317.0
80.1153 333.0
80.1822 351.0
80.249 366.0
80.3159 341.0
80.3827 380.0
80.4495 321.0
80.5164 356.0
80.5832 358.0
80.6501 331.0
80.7169 360.0
80.7838 379.0
80.8506 367.0
80.9175 366.0
80.9843 315.0
81.0512 339.0
81.118 363.0
81.1848 349.0
81.2517 345.0
81.3185 328.0
81.3854 342.0
81.4522 365.0
81.5191 344.0
81.5859 291.0
81.6528 337.0
81.7196 331.0
81.7864 318.0
81.8533 303.0
81.9201 318.0
81.987 309.0
82.0538 308.0
82.1207 310.0
82.1875 330.0
82.2544 324.0
82.3212 339.0
82.3881 313.0
82.4549 303.0
82.5217 291.0
82.5886 286.0
82.6554 321.0
82.7223 309.0
82.7891 317.0
82.856 317.0
82.9228 315.0
82.9897 301.0
83.0565 303.0
83.1233 301.0
83.1902 289.0
83.257 285.0
83.3239 278.0
83.3907 308.0
83.4576 294.0
83.5244 300.0
83.5913 332.0
83.6581 322.0
83.725 339.0
83.7918 276.0
83.8586 322.0
83.9255 257.0
83.9923 261.0
84.0592 294.0
84.126 323.0
84.1929 302.0
84.2597 322.0
84.3266 284.0
84.3934 273.0
84.4603 289.0
84.5271 294.0
84.5939 272.0
84.6608 293.0
84.7276 280.0
84.7945 280.0
84.8613 292.0
84.9282 273.0
84.995 280.0
85.0619 286.0
85.1287 285.0
85.1955 291.0
85.2624 275.0
85.3292 272.0
85.3961 290.0
85.4629 289.0
85.5298 279.0
85.5966 276.0
85.6635 292.0
85.7303 300.0
85.7972 273.0
85.864 277.0
85.9308 268.0
85.9977 302.0
86.0645 277.0
86.1314 269.0
86.1982 263.0
86.2651 284.0
86.3319 242.0
86.3988 289.0
86.4656 263.0
86.5324 282.0
86.5993 268.0
86.6661 269.0
86.733 266.0
86.7998 252.0
86.8667 248.0
86.9335 246.0
87.0004 275.0
87.0672 244.0
87.1341 282.0
87.2009 239.0
87.2677 248.0
87.3346 276.0
87.4014 263.0
87.4683 254.0
87.5351 267.0
87.602 248.0
87.6688 268.0
87.7357 225.0
87.8025 264.0
87.8693 252.0
87.9362 272.0
88.003 236.0
88.0699 268.0
88.1367 308.0
88.2036 250.0
88.2704 303.0
88.3373 261.0
88.4041 239.0
88.471 240.0
88.5378 262.0
88.6046 244.0
88.6715 221.0
88.7383 229.0
88.8052 240.0
88.872 263.0
88.9389 223.0
89.0057 258.0
89.0726 263.0
89.1394 254.0
89.2063 266.0
89.2731 232.0
89.3399 228.0
89.4068 243.0
89.4736 272.0
89.5405 252.0
89.6073 261.0
89.6742 253.0
89.741 239.0
89.8079 232.0
89.8747 238.0
89.9415 251.0