File: code/XRD_Analysis/External Sources/Alex_SAPO/20230328_SAPO-18_230315_clean_calc550C_4h.xy
4.98146 1493.0
5.0483 1433.0
5.11515 1379.0
5.18199 1385.0
5.24884 1369.0
5.31568 1354.0
5.38253 1349.0
5.44937 1292.0
5.51622 1307.0
5.58306 1325.0
5.64991 1331.0
5.71675 1236.0
5.7836 1314.0
5.85044 1169.0
5.91729 1159.0
5.98413 1146.0
6.05098 1136.0
6.11782 1129.0
6.18467 1149.0
6.25151 1094.0
6.31836 1088.0
6.3852 1115.0
6.45205 1128.0
6.51889 1058.0
6.58574 986.0
6.65258 1034.0
6.71943 1041.0
6.78627 992.0
6.85312 1032.0
6.91996 967.0
6.98681 1003.0
7.05365 986.0
7.1205 956.0
7.18734 1036.0
7.25419 1022.0
7.32103 904.0
7.38788 909.0
7.45472 942.0
7.52157 915.0
7.58841 942.0
7.65526 919.0
7.7221 863.0
7.78895 915.0
7.85579 942.0
7.92264 896.0
7.98948 852.0
8.05633 864.0
8.12317 834.0
8.19002 848.0
8.25686 899.0
8.32371 831.0
8.39055 857.0
8.4574 862.0
8.52424 857.0
8.59109 927.0
8.65793 836.0
8.72478 832.0
8.79162 879.0
8.85847 900.0
8.92532 855.0
8.99216 854.0
9.05901 937.0
9.12585 996.0
9.1927 1147.0
9.25954 1345.0
9.32639 1798.0
9.39323 2678.0
9.46008 5020.0
9.52692 8881.0
9.59377 9325.0
9.66061 6035.0
9.72746 3529.0
9.7943 1928.0
9.86115 1367.0
9.92799 1158.0
9.99484 1037.0
10.0617 977.0
10.1285 883.0
10.1954 884.0
10.2622 970.0
10.3291 870.0
10.3959 1021.0
10.4628 1076.0
10.5296 1375.0
10.5964 1752.0
10.6633 2223.0
10.7301 2025.0
10.797 1448.0
10.8638 1194.0
10.9307 1029.0
10.9975 879.0
11.0644 844.0
11.1312 759.0
11.198 746.0
11.2649 759.0
11.3317 685.0
11.3986 735.0
11.4654 732.0
11.5323 688.0
11.5991 662.0
11.666 649.0
11.7328 663.0
11.7997 632.0
11.8665 648.0
11.9333 670.0
12.0002 631.0
12.067 618.0
12.1339 662.0
12.2007 641.0
12.2676 612.0
12.3344 638.0
12.4013 699.0
12.4681 716.0
12.5349 638.0
12.6018 668.0
12.6686 790.0
12.7355 772.0
12.8023 1034.0
12.8692 1379.0
12.936 2022.0
13.0029 2175.0
13.0697 1499.0
13.1366 964.0
13.2034 897.0
13.2702 719.0
13.3371 776.0
13.4039 814.0
13.4708 970.0
13.5376 1132.0
13.6045 1136.0
13.6713 980.0
13.7382 767.0
13.805 705.0
13.8719 685.0
13.9387 717.0
14.0055 763.0
14.0724 747.0
14.1392 606.0
14.2061 623.0
14.2729 610.0
14.3398 596.0
14.4066 641.0
14.4735 636.0
14.5403 584.0
14.6071 601.0
14.674 610.0
14.7408 612.0
14.8077 632.0
14.8745 619.0
14.9414 601.0
15.0082 610.0
15.0751 572.0
15.1419 609.0
15.2088 625.0
15.2756 658.0
15.3424 678.0
15.4093 626.0
15.4761 664.0
15.543 670.0
15.6098 609.0
15.6767 695.0
15.7435 723.0
15.8104 750.0
15.8772 776.0
15.944 869.0
16.0109 1162.0
16.0777 1520.0
16.1446 2002.0
16.2114 1830.0
16.2783 1494.0
16.3451 1203.0
16.412 954.0
16.4788 877.0
16.5457 854.0
16.6125 846.0
16.6793 889.0
16.7462 1037.0
16.813 1182.0
16.8799 1511.0
16.9467 2289.0
17.0136 3053.0
17.0804 3010.0
17.1473 2491.0
17.2141 2142.0
17.2809 2235.0
17.3478 2071.0
17.4146 1883.0
17.4815 1574.0
17.5483 1321.0
17.6152 1127.0
17.682 1031.0
17.7489 943.0
17.8157 888.0
17.8826 839.0
17.9494 852.0
18.0162 808.0
18.0831 767.0
18.1499 743.0
18.2168 779.0
18.2836 771.0
18.3505 737.0
18.4173 750.0
18.4842 739.0
18.551 767.0
18.6179 806.0
18.6847 740.0
18.7515 729.0
18.8184 809.0
18.8852 846.0
18.9521 857.0
19.0189 944.0
19.0858 1213.0
19.1526 1413.0
19.2195 1221.0
19.2863 1047.0
19.3531 977.0
19.42 940.0
19.4868 941.0
19.5537 954.0
19.6205 1105.0
19.6874 1271.0
19.7542 1333.0
19.8211 1225.0
19.8879 1161.0
19.9548 1150.0
20.0216 1243.0
20.0884 1394.0
20.1553 1571.0
20.2221 1484.0
20.289 1361.0
20.3558 1332.0
20.4227 1247.0
20.4895 1305.0
20.5564 1409.0
20.6232 2073.0
20.69 2542.0
20.7569 2868.0
20.8237 2329.0
20.8906 1755.0
20.9574 1476.0
21.0243 1362.0
21.0911 1309.0
21.158 1404.0
21.2248 1575.0
21.2917 1857.0
21.3585 2157.0
21.4253 2528.0
21.4922 2705.0
21.559 2421.0
21.6259 1937.0
21.6927 1603.0
21.7596 1267.0
21.8264 1194.0
21.8933 1138.0
21.9601 1049.0
22.0269 1060.0
22.0938 1047.0
22.1606 1045.0
22.2275 1019.0
22.2943 1040.0
22.3612 1048.0
22.428 1073.0
22.4949 1137.0
22.5617 1218.0
22.6286 1291.0
22.6954 1130.0
22.7622 1110.0
22.8291 1087.0
22.8959 1121.0
22.9628 1174.0
23.0296 1147.0
23.0965 1220.0
23.1633 1283.0
23.2302 1380.0
23.297 1439.0
23.3639 1260.0
23.4307 1262.0
23.4975 1303.0
23.5644 1305.0
23.6312 1277.0
23.6981 1359.0
23.7649 1613.0
23.8318 1865.0
23.8986 2227.0
23.9655 2840.0
24.0323 3141.0
24.0991 3103.0
24.166 2893.0
24.2328 2365.0
24.2997 1855.0
24.3665 1594.0
24.4334 1520.0
24.5002 1362.0
24.5671 1319.0
24.6339 1232.0
24.7008 1198.0
24.7676 1166.0
24.8344 1198.0
24.9013 1140.0
24.9681 1156.0
25.035 1194.0
25.1018 1213.0
25.1687 1176.0
25.2355 1207.0
25.3024 1314.0
25.3692 1341.0
25.436 1340.0
25.5029 1315.0
25.5697 1357.0
25.6366 1367.0
25.7034 1278.0
25.7703 1412.0
25.8371 1427.0
25.904 1539.0
25.9708 1794.0
26.0377 2057.0
26.1045 2083.0
26.1713 2004.0
26.2382 1899.0
26.305 1871.0
26.3719 1984.0
26.4387 2200.0
26.5056 2072.0
26.5724 1884.0
26.6393 1600.0
26.7061 1424.0
26.773 1297.0
26.8398 1213.0
26.9066 1146.0
26.9735 1131.0
27.0403 1095.0
27.1072 1120.0
27.174 1169.0
27.2409 1204.0
27.3077 1146.0
27.3746 1222.0
27.4414 1132.0
27.5082 1158.0
27.5751 1148.0
27.6419 1210.0
27.7088 1308.0
27.7756 1381.0
27.8425 1586.0
27.9093 1718.0
27.9762 1817.0
28.043 1825.0
28.1099 1765.0
28.1767 1761.0
28.2435 1637.0
28.3104 1579.0
28.3772 1396.0
28.4441 1282.0
28.5109 1222.0
28.5778 1196.0
28.6446 1174.0
28.7115 1115.0
28.7783 1047.0
28.8451 1082.0
28.912 1064.0
28.9788 1050.0
29.0457 1011.0
29.1125 1128.0
29.1794 1080.0
29.2462 1069.0
29.3131 1104.0
29.3799 1252.0
29.4468 1252.0
29.5136 1230.0
29.5804 1284.0
29.6473 1269.0
29.7141 1384.0
29.781 1362.0
29.8478 1328.0
29.9147 1429.0
29.9815 1450.0
30.0484 1628.0
30.1152 1712.0
30.182 1634.0
30.2489 1685.0
30.3157 1546.0
30.3826 1554.0
30.4494 1616.0
30.5163 1763.0
30.5831 1721.0
30.65 1771.0
30.7168 1804.0
30.7837 1817.0
30.8505 1808.0
30.9173 1788.0
30.9842 1846.0
31.051 2121.0
31.1179 2469.0
31.1847 2708.0
31.2516 2950.0
31.3184 2807.0
31.3853 2532.0
31.4521 2188.0
31.519 1784.0
31.5858 1637.0
31.6526 1529.0
31.7195 1440.0
31.7863 1297.0
31.8532 1449.0
31.92 1376.0
31.9869 1332.0
32.0537 1286.0
32.1206 1302.0
32.1874 1306.0
32.2542 1449.0
32.3211 1512.0
32.3879 1630.0
32.4548 1682.0
32.5216 1601.0
32.5885 1477.0
32.6553 1448.0
32.7222 1418.0
32.789 1397.0
32.8559 1406.0
32.9227 1334.0
32.9895 1397.0
33.0564 1409.0
33.1232 1325.0
33.1901 1235.0
33.2569 1141.0
33.3238 1078.0
33.3906 1009.0
33.4575 916.0
33.5243 867.0
33.5911 900.0
33.658 829.0
33.7248 842.0
33.7917 808.0
33.8585 859.0
33.9254 918.0
33.9922 820.0
34.0591 786.0
34.1259 737.0
34.1928 753.0
34.2596 771.0
34.3264 750.0
34.3933 761.0
34.4601 800.0
34.527 825.0
34.5938 804.0
34.6607 754.0
34.7275 729.0
34.7944 729.0
34.8612 714.0
34.928 767.0
34.9949 783.0
35.0617 712.0
35.1286 747.0
35.1954 703.0
35.2623 692.0
35.3291 713.0
35.396 651.0
35.4628 746.0
35.5297 665.0
35.5965 712.0
35.6633 691.0
35.7302 650.0
35.797 659.0
35.8639 698.0
35.9307 686.0
35.9976 724.0
36.0644 658.0
36.1313 722.0
36.1981 694.0
36.265 698.0
36.3318 678.0
36.3986 686.0
36.4655 723.0
36.5323 726.0
36.5992 717.0
36.666 693.0
36.7329 672.0
36.7997 724.0
36.8666 600.0
36.9334 622.0
37.0002 583.0
37.0671 572.0
37.1339 589.0
37.2008 566.0
37.2676 559.0
37.3345 545.0
37.4013 561.0
37.4682 559.0
37.535 564.0
37.6019 554.0
37.6687 559.0
37.7355 575.0
37.8024 513.0
37.8692 556.0
37.9361 537.0
38.0029 571.0
38.0698 570.0
38.1366 503.0
38.2035 572.0
38.2703 544.0
38.3371 522.0
38.404 517.0
38.4708 536.0
38.5377 537.0
38.6045 512.0
38.6714 529.0
38.7382 621.0
38.8051 528.0
38.8719 555.0
38.9388 619.0
39.0056 611.0
39.0724 616.0
39.1393 572.0
39.2061 626.0
39.273 611.0
39.3398 620.0
39.4067 631.0
39.4735 620.0
39.5404 617.0
39.6072 569.0
39.6741 580.0
39.7409 620.0
39.8077 554.0
39.8746 573.0
39.9414 563.0
40.0083 569.0
40.0751 557.0
40.142 543.0
40.2088 594.0
40.2757 559.0
40.3425 581.0
40.4093 586.0
40.4762 517.0
40.543 508.0
40.6099 534.0
40.6767 522.0
40.7436 545.0
40.8104 568.0
40.8773 563.0
40.9441 569.0
41.011 561.0
41.0778 594.0
41.1446 548.0
41.2115 599.0
41.2783 579.0
41.3452 569.0
41.412 615.0
41.4789 560.0
41.5457 618.0
41.6126 609.0
41.6794 627.0
41.7462 658.0
41.8131 604.0
41.8799 599.0
41.9468 596.0
42.0136 543.0
42.0805 574.0
42.1473 583.0
42.2142 588.0
42.281 574.0
42.3479 518.0
42.4147 543.0
42.4815 539.0
42.5484 505.0
42.6152 498.0
42.6821 551.0
42.7489 505.0
42.8158 561.0
42.8826 509.0
42.9495 588.0
43.0163 537.0
43.0831 597.0
43.15 606.0
43.2168 629.0
43.2837 620.0
43.3505 629.0
43.4174 617.0
43.4842 604.0
43.5511 657.0
43.6179 585.0
43.6848 579.0
43.7516 586.0
43.8184 609.0
43.8853 574.0
43.9521 554.0
44.019 566.0
44.0858 549.0
44.1527 525.0
44.2195 539.0
44.2864 553.0
44.3532 543.0
44.4201 589.0
44.4869 535.0
44.5537 552.0
44.6206 520.0
44.6874 549.0
44.7543 517.0
44.8211 566.0
44.888 558.0
44.9548 553.0
45.0217 527.0
45.0885 565.0
45.1553 519.0
45.2222 517.0
45.289 545.0
45.3559 543.0
45.4227 531.0
45.4896 533.0
45.5564 532.0
45.6233 519.0
45.6901 517.0
45.757 539.0
45.8238 509.0
45.8906 509.0
45.9575 520.0
46.0243 498.0
46.0912 532.0
46.158 510.0
46.2249 523.0
46.2917 500.0
46.3586 534.0
46.4254 507.0
46.4922 508.0
46.5591 544.0
46.6259 521.0
46.6928 507.0
46.7596 500.0
46.8265 547.0
46.8933 526.0
46.9602 476.0
47.027 451.0
47.0939 541.0
47.1607 522.0
47.2275 531.0
47.2944 497.0
47.3612 524.0
47.4281 540.0
47.4949 566.0
47.5618 493.0
47.6286 510.0
47.6955 516.0
47.7623 504.0
47.8291 566.0
47.896 570.0
47.9628 513.0
48.0297 504.0
48.0965 493.0
48.1634 539.0
48.2302 520.0
48.2971 523.0
48.3639 450.0
48.4308 547.0
48.4976 504.0
48.5644 555.0
48.6313 518.0
48.6981 527.0
48.765 555.0
48.8318 544.0
48.8987 583.0
48.9655 638.0
49.0324 698.0
49.0992 696.0
49.1661 692.0
49.2329 738.0
49.2997 762.0
49.3666 737.0
49.4334 731.0
49.5003 750.0
49.5671 681.0
49.634 681.0
49.7008 689.0
49.7677 656.0
49.8345 635.0
49.9013 589.0
49.9682 649.0
50.035 644.0
50.1019 606.0
50.1687 606.0
50.2356 622.0
50.3024 663.0
50.3693 603.0
50.4361 639.0
50.503 662.0
50.5698 650.0
50.6366 627.0
50.7035 610.0
50.7703 621.0
50.8372 626.0
50.904 611.0
50.9709 628.0
51.0377 641.0
51.1046 614.0
51.1714 603.0
51.2382 638.0
51.3051 615.0
51.3719 597.0
51.4388 586.0
51.5056 574.0
51.5725 554.0
51.6393 589.0
51.7062 549.0
51.773 571.0
51.8399 508.0
51.9067 552.0
51.9735 534.0
52.0404 553.0
52.1072 590.0
52.1741 528.0
52.2409 511.0
52.3078 494.0
52.3746 501.0
52.4415 537.0
52.5083 597.0
52.5751 543.0
52.642 554.0
52.7088 520.0
52.7757 568.0
52.8425 493.0
52.9094 536.0
52.9762 536.0
53.0431 522.0
53.1099 494.0
53.1768 510.0
53.2436 501.0
53.3104 541.0
53.3773 500.0
53.4441 520.0
53.511 539.0
53.5778 575.0
53.6447 508.0
53.7115 516.0
53.7784 576.0
53.8452 517.0
53.9121 511.0
53.9789 557.0
54.0457 552.0
54.1126 518.0
54.1794 506.0
54.2463 495.0
54.3131 492.0
54.38 506.0
54.4468 505.0
54.5137 506.0
54.5805 514.0
54.6473 493.0
54.7142 506.0
54.781 520.0
54.8479 522.0
54.9147 502.0
54.9816 509.0
55.0484 527.0
55.1153 536.0
55.1821 503.0
55.249 545.0
55.3158 554.0
55.3826 589.0
55.4495 598.0
55.5163 602.0
55.5832 580.0
55.65 597.0
55.7169 544.0
55.7837 592.0
55.8506 578.0
55.9174 596.0
55.9842 638.0
56.0511 611.0
56.1179 544.0
56.1848 567.0
56.2516 553.0
56.3185 558.0
56.3853 559.0
56.4522 591.0
56.519 544.0
56.5859 524.0
56.6527 504.0
56.7195 533.0
56.7864 518.0
56.8532 506.0
56.9201 537.0
56.9869 513.0
57.0538 509.0
57.1206 498.0
57.1875 512.0
57.2543 480.0
57.3212 432.0
57.388 443.0
57.4548 460.0
57.5217 446.0
57.5885 471.0
57.6554 433.0
57.7222 465.0
57.7891 462.0
57.8559 439.0
57.9228 395.0
57.9896 458.0
58.0564 453.0
58.1233 462.0
58.1901 447.0
58.257 427.0
58.3238 453.0
58.3907 449.0
58.4575 450.0
58.5244 443.0
58.5912 479.0
58.6581 501.0
58.7249 472.0
58.7917 494.0
58.8586 464.0
58.9254 508.0
58.9923 488.0
59.0591 485.0
59.126 483.0
59.1928 474.0
59.2597 475.0
59.3265 476.0
59.3933 486.0
59.4602 495.0
59.527 531.0
59.5939 516.0
59.6607 529.0
59.7276 542.0
59.7944 531.0
59.8613 528.0
59.9281 558.0
59.995 487.0
60.0618 476.0
60.1286 519.0
60.1955 456.0
60.2623 439.0
60.3292 500.0
60.396 446.0
60.4629 488.0
60.5297 461.0
60.5966 502.0
60.6634 491.0
60.7302 524.0
60.7971 510.0
60.8639 469.0
60.9308 485.0
60.9976 447.0
61.0645 475.0
61.1313 488.0
61.1982 477.0
61.265 451.0
61.3319 467.0
61.3987 518.0
61.4655 483.0
61.5324 454.0
61.5992 461.0
61.6661 483.0
61.7329 477.0
61.7998 489.0
61.8666 459.0
61.9335 470.0
62.0003 430.0
62.0672 445.0
62.134 457.0
62.2008 458.0
62.2677 479.0
62.3345 440.0
62.4014 453.0
62.4682 447.0
62.5351 476.0
62.6019 416.0
62.6688 462.0
62.7356 435.0
62.8024 450.0
62.8693 417.0
62.9361 486.0
63.003 389.0
63.0698 475.0
63.1367 471.0
63.2035 505.0
63.2704 465.0
63.3372 463.0
63.4041 475.0
63.4709 492.0
63.5377 477.0
63.6046 474.0
63.6714 465.0
63.7383 496.0
63.8051 494.0
63.872 480.0
63.9388 485.0
64.0057 486.0
64.0725 506.0
64.1393 478.0
64.2062 510.0
64.273 457.0
64.3399 440.0
64.4067 470.0
64.4736 451.0
64.5404 461.0
64.6073 495.0
64.6741 479.0
64.741 419.0
64.8078 463.0
64.8746 471.0
64.9415 432.0
65.0083 451.0
65.0752 467.0
65.142 476.0
65.2089 443.0
65.2757 415.0
65.3426 431.0
65.4094 490.0
65.4762 445.0
65.5431 444.0
65.6099 455.0
65.6768 441.0
65.7436 432.0
65.8105 439.0
65.8773 470.0
65.9442 463.0
66.011 455.0
66.0779 480.0
66.1447 459.0
66.2115 478.0
66.2784 462.0
66.3452 487.0
66.4121 497.0
66.4789 455.0
66.5458 511.0
66.6126 498.0
66.6795 469.0
66.7463 514.0
66.8132 544.0
66.88 493.0
66.9468 542.0
67.0137 512.0
67.0805 512.0
67.1474 523.0
67.2142 536.0
67.2811 537.0
67.3479 512.0
67.4148 474.0
67.4816 493.0
67.5484 491.0
67.6153 473.0
67.6821 510.0
67.749 485.0
67.8158 448.0
67.8827 479.0
67.9495 459.0
68.0164 476.0
68.0832 429.0
68.1501 447.0
68.2169 439.0
68.2837 432.0
68.3506 420.0
68.4174 456.0
68.4843 443.0
68.5511 425.0
68.618 399.0
68.6848 424.0
68.7517 429.0
68.8185 445.0
68.8853 442.0
68.9522 414.0
69.019 497.0
69.0859 435.0
69.1527 429.0
69.2196 451.0
69.2864 413.0
69.3533 411.0
69.4201 396.0
69.487 407.0
69.5538 459.0
69.6206 431.0
69.6875 412.0
69.7543 412.0
69.8212 431.0
69.888 475.0
69.9549 495.0
70.0217 455.0
70.0886 448.0
70.1554 510.0
70.2222 526.0
70.2891 466.0
70.3559 506.0
70.4228 526.0
70.4896 480.0
70.5565 500.0
70.6233 505.0
70.6902 526.0
70.757 470.0
70.8239 444.0
70.8907 501.0
70.9575 464.0
71.0244 451.0
71.0912 424.0
71.1581 448.0
71.2249 458.0
71.2918 442.0
71.3586 424.0
71.4255 448.0
71.4923 378.0
71.5592 462.0
71.626 388.0
71.6928 462.0
71.7597 446.0
71.8265 443.0
71.8934 369.0
71.9602 417.0
72.0271 425.0
72.0939 392.0
72.1608 403.0
72.2276 387.0
72.2944 411.0
72.3613 424.0
72.4281 436.0
72.495 446.0
72.5618 432.0
72.6287 410.0
72.6955 416.0
72.7624 457.0
72.8292 425.0
72.8961 439.0
72.9629 389.0
73.0297 404.0
73.0966 442.0
73.1634 449.0
73.2303 412.0
73.2971 416.0
73.364 435.0
73.4308 402.0
73.4977 419.0
73.5645 461.0
73.6313 414.0
73.6982 402.0
73.765 382.0
73.8319 399.0
73.8987 438.0
73.9656 404.0
74.0324 408.0
74.0993 422.0
74.1661 412.0
74.233 453.0
74.2998 369.0
74.3666 402.0
74.4335 384.0
74.5003 398.0
74.5672 349.0
74.634 384.0
74.7009 388.0
74.7677 395.0
74.8346 389.0
74.9014 430.0
74.9683 412.0
75.0351 396.0
75.1019 381.0
75.1688 412.0
75.2356 415.0
75.3025 415.0
75.3693 408.0
75.4362 414.0
75.503 388.0
75.5699 388.0
75.6367 376.0
75.7035 402.0
75.7704 424.0
75.8372 429.0
75.9041 375.0
75.9709 407.0
76.0378 407.0
76.1046 345.0
76.1715 388.0
76.2383 378.0
76.3052 411.0
76.372 400.0
76.4388 368.0
76.5057 349.0
76.5725 365.0
76.6394 337.0
76.7062 371.0
76.7731 364.0
76.8399 372.0
76.9068 370.0
76.9736 371.0
77.0404 351.0
77.1073 353.0
77.1741 356.0
77.241 341.0
77.3078 355.0
77.3747 351.0
77.4415 355.0
77.5084 325.0
77.5752 367.0
77.6421 351.0
77.7089 356.0
77.7757 360.0
77.8426 357.0
77.9094 378.0
77.9763 347.0
78.0431 333.0
78.11 376.0
78.1768 334.0
78.2437 342.0
78.3105 336.0
78.3773 328.0
78.4442 350.0
78.511 360.0
78.5779 347.0
78.6447 335.0
78.7116 370.0
78.7784 346.0
78.8453 345.0
78.9121 324.0
78.979 320.0
79.0458 367.0
79.1126 329.0
79.1795 360.0
79.2463 336.0
79.3132 358.0
79.38 316.0
79.4469 306.0
79.5137 330.0
79.5806 316.0
79.6474 352.0
79.7143 318.0
79.7811 306.0
79.8479 319.0
79.9148 344.0
79.9816 294.0
80.0485 337.0
80.1153 333.0
80.1822 323.0
80.249 330.0
80.3159 329.0
80.3827 308.0
80.4495 324.0
80.5164 323.0
80.5832 367.0
80.6501 332.0
80.7169 336.0
80.7838 319.0
80.8506 334.0
80.9175 320.0
80.9843 333.0
81.0512 308.0
81.118 307.0
81.1848 323.0
81.2517 329.0
81.3185 323.0
81.3854 301.0
81.4522 310.0
81.5191 298.0
81.5859 301.0
81.6528 307.0
81.7196 314.0
81.7864 321.0
81.8533 288.0
81.9201 302.0
81.987 282.0
82.0538 299.0
82.1207 291.0
82.1875 339.0
82.2544 350.0
82.3212 284.0
82.3881 301.0
82.4549 264.0
82.5217 291.0
82.5886 303.0
82.6554 255.0
82.7223 268.0
82.7891 293.0
82.856 277.0
82.9228 297.0
82.9897 258.0
83.0565 308.0
83.1233 280.0
83.1902 294.0
83.257 292.0
83.3239 300.0
83.3907 276.0
83.4576 293.0
83.5244 294.0
83.5913 297.0
83.6581 282.0
83.725 291.0
83.7918 303.0
83.8586 298.0
83.9255 228.0
83.9923 279.0
84.0592 252.0
84.126 269.0
84.1929 287.0
84.2597 271.0
84.3266 253.0
84.3934 273.0
84.4603 254.0
84.5271 283.0
84.5939 283.0
84.6608 274.0
84.7276 248.0
84.7945 283.0
84.8613 280.0
84.9282 274.0
84.995 280.0
85.0619 287.0
85.1287 259.0
85.1955 270.0
85.2624 258.0
85.3292 275.0
85.3961 260.0
85.4629 219.0
85.5298 268.0
85.5966 267.0
85.6635 272.0
85.7303 264.0
85.7972 273.0
85.864 257.0
85.9308 275.0
85.9977 247.0
86.0645 252.0
86.1314 245.0
86.1982 215.0
86.2651 248.0
86.3319 252.0
86.3988 239.0
86.4656 264.0
86.5324 222.0
86.5993 258.0
86.6661 223.0
86.733 232.0
86.7998 251.0
86.8667 242.0
86.9335 229.0
87.0004 259.0
87.0672 232.0
87.1341 227.0
87.2009 264.0
87.2677 217.0
87.3346 225.0
87.4014 242.0
87.4683 227.0
87.5351 230.0
87.602 242.0
87.6688 251.0
87.7357 235.0
87.8025 240.0
87.8693 236.0
87.9362 223.0
88.003 251.0
88.0699 236.0
88.1367 241.0
88.2036 222.0
88.2704 244.0
88.3373 240.0
88.4041 235.0
88.471 260.0
88.5378 235.0
88.6046 250.0
88.6715 201.0
88.7383 240.0
88.8052 222.0
88.872 257.0
88.9389 222.0
89.0057 236.0
89.0726 221.0
89.1394 253.0
89.2063 261.0
89.2731 221.0
89.3399 228.0
89.4068 204.0
89.4736 219.0
89.5405 233.0
89.6073 223.0
89.6742 253.0
89.741 217.0
89.8079 217.0
89.8747 231.0
89.9415 204.0