File: code/XRD_Analysis/External Sources/Alex_SAPO/20230328_SAPO-18_230315_dirt_calc550C_4h.xy
4.98146 1524.0
5.0483 1502.0
5.11515 1495.0
5.18199 1551.0
5.24884 1446.0
5.31568 1447.0
5.38253 1340.0
5.44937 1445.0
5.51622 1393.0
5.58306 1310.0
5.64991 1305.0
5.71675 1391.0
5.7836 1301.0
5.85044 1289.0
5.91729 1211.0
5.98413 1314.0
6.05098 1228.0
6.11782 1267.0
6.18467 1224.0
6.25151 1204.0
6.31836 1190.0
6.3852 1120.0
6.45205 1188.0
6.51889 1203.0
6.58574 1156.0
6.65258 1140.0
6.71943 1050.0
6.78627 1088.0
6.85312 1089.0
6.91996 1071.0
6.98681 1116.0
7.05365 1087.0
7.1205 1043.0
7.18734 1068.0
7.25419 1007.0
7.32103 996.0
7.38788 1012.0
7.45472 982.0
7.52157 949.0
7.58841 956.0
7.65526 960.0
7.7221 951.0
7.78895 926.0
7.85579 937.0
7.92264 915.0
7.98948 901.0
8.05633 942.0
8.12317 898.0
8.19002 967.0
8.25686 992.0
8.32371 939.0
8.39055 886.0
8.4574 911.0
8.52424 830.0
8.59109 938.0
8.65793 880.0
8.72478 941.0
8.79162 948.0
8.85847 896.0
8.92532 986.0
8.99216 950.0
9.05901 991.0
9.12585 1089.0
9.1927 1254.0
9.25954 1458.0
9.32639 1891.0
9.39323 3220.0
9.46008 6026.0
9.52692 11114.0
9.59377 11100.0
9.66061 7350.0
9.72746 3680.0
9.7943 2059.0
9.86115 1473.0
9.92799 1306.0
9.99484 1123.0
10.0617 1008.0
10.1285 986.0
10.1954 1029.0
10.2622 966.0
10.3291 981.0
10.3959 1122.0
10.4628 1289.0
10.5296 1552.0
10.5964 2094.0
10.6633 2497.0
10.7301 2266.0
10.797 1712.0
10.8638 1301.0
10.9307 1079.0
10.9975 961.0
11.0644 920.0
11.1312 844.0
11.198 830.0
11.2649 788.0
11.3317 799.0
11.3986 716.0
11.4654 786.0
11.5323 712.0
11.5991 709.0
11.666 752.0
11.7328 730.0
11.7997 719.0
11.8665 759.0
11.9333 747.0
12.0002 744.0
12.067 727.0
12.1339 742.0
12.2007 717.0
12.2676 728.0
12.3344 724.0
12.4013 720.0
12.4681 777.0
12.5349 737.0
12.6018 768.0
12.6686 859.0
12.7355 886.0
12.8023 1049.0
12.8692 1601.0
12.936 2448.0
13.0029 2525.0
13.0697 1718.0
13.1366 1132.0
13.2034 931.0
13.2702 911.0
13.3371 834.0
13.4039 951.0
13.4708 1095.0
13.5376 1362.0
13.6045 1360.0
13.6713 1162.0
13.7382 923.0
13.805 814.0
13.8719 779.0
13.9387 804.0
14.0055 860.0
14.0724 867.0
14.1392 757.0
14.2061 682.0
14.2729 642.0
14.3398 710.0
14.4066 683.0
14.4735 730.0
14.5403 670.0
14.6071 686.0
14.674 705.0
14.7408 756.0
14.8077 759.0
14.8745 715.0
14.9414 752.0
15.0082 692.0
15.0751 735.0
15.1419 669.0
15.2088 681.0
15.2756 719.0
15.3424 717.0
15.4093 703.0
15.4761 734.0
15.543 720.0
15.6098 739.0
15.6767 813.0
15.7435 829.0
15.8104 806.0
15.8772 966.0
15.944 1064.0
16.0109 1354.0
16.0777 1890.0
16.1446 2233.0
16.2114 2160.0
16.2783 1796.0
16.3451 1406.0
16.412 1158.0
16.4788 1007.0
16.5457 987.0
16.6125 996.0
16.6793 1084.0
16.7462 1098.0
16.813 1401.0
16.8799 1828.0
16.9467 2640.0
17.0136 3615.0
17.0804 3605.0
17.1473 2831.0
17.2141 2567.0
17.2809 2534.0
17.3478 2548.0
17.4146 2197.0
17.4815 1806.0
17.5483 1511.0
17.6152 1296.0
17.682 1218.0
17.7489 1132.0
17.8157 946.0
17.8826 992.0
17.9494 949.0
18.0162 924.0
18.0831 925.0
18.1499 914.0
18.2168 859.0
18.2836 959.0
18.3505 855.0
18.4173 857.0
18.4842 845.0
18.551 835.0
18.6179 869.0
18.6847 912.0
18.7515 891.0
18.8184 878.0
18.8852 917.0
18.9521 978.0
19.0189 1110.0
19.0858 1443.0
19.1526 1610.0
19.2195 1429.0
19.2863 1222.0
19.3531 1110.0
19.42 1056.0
19.4868 1081.0
19.5537 1079.0
19.6205 1228.0
19.6874 1414.0
19.7542 1548.0
19.8211 1515.0
19.8879 1363.0
19.9548 1383.0
20.0216 1445.0
20.0884 1594.0
20.1553 1872.0
20.2221 1812.0
20.289 1744.0
20.3558 1802.0
20.4227 1583.0
20.4895 1643.0
20.5564 1836.0
20.6232 2361.0
20.69 3207.0
20.7569 3529.0
20.8237 2795.0
20.8906 2083.0
20.9574 1724.0
21.0243 1617.0
21.0911 1576.0
21.158 1675.0
21.2248 1935.0
21.2917 2283.0
21.3585 2765.0
21.4253 3203.0
21.4922 3424.0
21.559 3210.0
21.6259 2522.0
21.6927 2000.0
21.7596 2002.0
21.8264 1757.0
21.8933 1428.0
21.9601 1273.0
22.0269 1275.0
22.0938 1370.0
22.1606 1266.0
22.2275 1287.0
22.2943 1304.0
22.3612 1224.0
22.428 1313.0
22.4949 1361.0
22.5617 1471.0
22.6286 1481.0
22.6954 1505.0
22.7622 1423.0
22.8291 1398.0
22.8959 1323.0
22.9628 1414.0
23.0296 1340.0
23.0965 1445.0
23.1633 1542.0
23.2302 1690.0
23.297 1735.0
23.3639 1570.0
23.4307 1470.0
23.4975 1378.0
23.5644 1478.0
23.6312 1463.0
23.6981 1601.0
23.7649 1772.0
23.8318 2056.0
23.8986 2641.0
23.9655 3146.0
24.0323 3640.0
24.0991 3660.0
24.166 3358.0
24.2328 2804.0
24.2997 2384.0
24.3665 1922.0
24.4334 1712.0
24.5002 1521.0
24.5671 1438.0
24.6339 1406.0
24.7008 1388.0
24.7676 1355.0
24.8344 1324.0
24.9013 1340.0
24.9681 1369.0
25.035 1300.0
25.1018 1393.0
25.1687 1353.0
25.2355 1398.0
25.3024 1427.0
25.3692 1523.0
25.436 1518.0
25.5029 1440.0
25.5697 1591.0
25.6366 1482.0
25.7034 1502.0
25.7703 1546.0
25.8371 1671.0
25.904 1746.0
25.9708 1901.0
26.0377 2294.0
26.1045 2409.0
26.1713 2314.0
26.2382 2060.0
26.305 2106.0
26.3719 2224.0
26.4387 2503.0
26.5056 2449.0
26.5724 2160.0
26.6393 1803.0
26.7061 1642.0
26.773 1482.0
26.8398 1411.0
26.9066 1330.0
26.9735 1338.0
27.0403 1362.0
27.1072 1243.0
27.174 1307.0
27.2409 1347.0
27.3077 1361.0
27.3746 1335.0
27.4414 1317.0
27.5082 1296.0
27.5751 1362.0
27.6419 1422.0
27.7088 1505.0
27.7756 1594.0
27.8425 1735.0
27.9093 1803.0
27.9762 2052.0
28.043 2119.0
28.1099 2228.0
28.1767 2046.0
28.2435 1938.0
28.3104 1871.0
28.3772 1635.0
28.4441 1555.0
28.5109 1432.0
28.5778 1297.0
28.6446 1283.0
28.7115 1261.0
28.7783 1269.0
28.8451 1259.0
28.912 1151.0
28.9788 1230.0
29.0457 1210.0
29.1125 1191.0
29.1794 1162.0
29.2462 1247.0
29.3131 1265.0
29.3799 1302.0
29.4468 1397.0
29.5136 1379.0
29.5804 1413.0
29.6473 1466.0
29.7141 1599.0
29.781 1496.0
29.8478 1586.0
29.9147 1526.0
29.9815 1621.0
30.0484 1687.0
30.1152 1886.0
30.182 1966.0
30.2489 1786.0
30.3157 1755.0
30.3826 1744.0
30.4494 1849.0
30.5163 1850.0
30.5831 1861.0
30.65 1981.0
30.7168 2039.0
30.7837 2043.0
30.8505 2011.0
30.9173 2075.0
30.9842 2209.0
31.051 2284.0
31.1179 2618.0
31.1847 3010.0
31.2516 3175.0
31.3184 3191.0
31.3853 2868.0
31.4521 2381.0
31.519 2124.0
31.5858 1880.0
31.6526 1668.0
31.7195 1640.0
31.7863 1597.0
31.8532 1557.0
31.92 1554.0
31.9869 1465.0
32.0537 1380.0
32.1206 1434.0
32.1874 1456.0
32.2542 1522.0
32.3211 1649.0
32.3879 1859.0
32.4548 1807.0
32.5216 1805.0
32.5885 1718.0
32.6553 1667.0
32.7222 1599.0
32.789 1507.0
32.8559 1524.0
32.9227 1583.0
32.9895 1616.0
33.0564 1506.0
33.1232 1444.0
33.1901 1368.0
33.2569 1375.0
33.3238 1267.0
33.3906 1079.0
33.4575 1075.0
33.5243 1021.0
33.5911 972.0
33.658 1015.0
33.7248 991.0
33.7917 957.0
33.8585 1039.0
33.9254 1002.0
33.9922 917.0
34.0591 897.0
34.1259 900.0
34.1928 862.0
34.2596 798.0
34.3264 844.0
34.3933 864.0
34.4601 889.0
34.527 868.0
34.5938 941.0
34.6607 818.0
34.7275 824.0
34.7944 804.0
34.8612 831.0
34.928 875.0
34.9949 848.0
35.0617 866.0
35.1286 802.0
35.1954 831.0
35.2623 869.0
35.3291 836.0
35.396 781.0
35.4628 824.0
35.5297 862.0
35.5965 881.0
35.6633 871.0
35.7302 896.0
35.797 886.0
35.8639 908.0
35.9307 876.0
35.9976 821.0
36.0644 881.0
36.1313 837.0
36.1981 855.0
36.265 715.0
36.3318 813.0
36.3986 805.0
36.4655 852.0
36.5323 879.0
36.5992 797.0
36.666 766.0
36.7329 795.0
36.7997 839.0
36.8666 760.0
36.9334 713.0
37.0002 712.0
37.0671 674.0
37.1339 714.0
37.2008 726.0
37.2676 667.0
37.3345 680.0
37.4013 661.0
37.4682 688.0
37.535 635.0
37.6019 645.0
37.6687 647.0
37.7355 635.0
37.8024 653.0
37.8692 617.0
37.9361 618.0
38.0029 625.0
38.0698 622.0
38.1366 618.0
38.2035 617.0
38.2703 585.0
38.3371 620.0
38.404 616.0
38.4708 613.0
38.5377 656.0
38.6045 622.0
38.6714 638.0
38.7382 678.0
38.8051 616.0
38.8719 625.0
38.9388 707.0
39.0056 675.0
39.0724 682.0
39.1393 669.0
39.2061 693.0
39.273 714.0
39.3398 713.0
39.4067 708.0
39.4735 688.0
39.5404 638.0
39.6072 692.0
39.6741 680.0
39.7409 703.0
39.8077 639.0
39.8746 602.0
39.9414 647.0
40.0083 619.0
40.0751 679.0
40.142 614.0
40.2088 648.0
40.2757 616.0
40.3425 633.0
40.4093 584.0
40.4762 599.0
40.543 660.0
40.6099 643.0
40.6767 629.0
40.7436 625.0
40.8104 643.0
40.8773 628.0
40.9441 616.0
41.011 647.0
41.0778 657.0
41.1446 645.0
41.2115 644.0
41.2783 701.0
41.3452 680.0
41.412 685.0
41.4789 712.0
41.5457 680.0
41.6126 699.0
41.6794 679.0
41.7462 699.0
41.8131 616.0
41.8799 683.0
41.9468 646.0
42.0136 737.0
42.0805 660.0
42.1473 616.0
42.2142 662.0
42.281 630.0
42.3479 604.0
42.4147 603.0
42.4815 627.0
42.5484 610.0
42.6152 603.0
42.6821 601.0
42.7489 596.0
42.8158 626.0
42.8826 587.0
42.9495 628.0
43.0163 615.0
43.0831 632.0
43.15 682.0
43.2168 714.0
43.2837 698.0
43.3505 694.0
43.4174 685.0
43.4842 684.0
43.5511 658.0
43.6179 678.0
43.6848 630.0
43.7516 662.0
43.8184 628.0
43.8853 646.0
43.9521 691.0
44.019 609.0
44.0858 619.0
44.1527 591.0
44.2195 649.0
44.2864 644.0
44.3532 626.0
44.4201 637.0
44.4869 648.0
44.5537 627.0
44.6206 602.0
44.6874 601.0
44.7543 629.0
44.8211 645.0
44.888 633.0
44.9548 651.0
45.0217 618.0
45.0885 588.0
45.1553 614.0
45.2222 619.0
45.289 582.0
45.3559 573.0
45.4227 636.0
45.4896 583.0
45.5564 632.0
45.6233 539.0
45.6901 615.0
45.757 563.0
45.8238 642.0
45.8906 615.0
45.9575 628.0
46.0243 633.0
46.0912 573.0
46.158 602.0
46.2249 587.0
46.2917 580.0
46.3586 579.0
46.4254 581.0
46.4922 590.0
46.5591 604.0
46.6259 560.0
46.6928 574.0
46.7596 573.0
46.8265 612.0
46.8933 609.0
46.9602 566.0
47.027 588.0
47.0939 627.0
47.1607 574.0
47.2275 586.0
47.2944 605.0
47.3612 560.0
47.4281 551.0
47.4949 574.0
47.5618 583.0
47.6286 591.0
47.6955 564.0
47.7623 524.0
47.8291 556.0
47.896 582.0
47.9628 586.0
48.0297 574.0
48.0965 556.0
48.1634 547.0
48.2302 569.0
48.2971 574.0
48.3639 590.0
48.4308 526.0
48.4976 576.0
48.5644 585.0
48.6313 548.0
48.6981 582.0
48.765 630.0
48.8318 639.0
48.8987 614.0
48.9655 672.0
49.0324 742.0
49.0992 777.0
49.1661 762.0
49.2329 740.0
49.2997 781.0
49.3666 732.0
49.4334 751.0
49.5003 719.0
49.5671 712.0
49.634 710.0
49.7008 763.0
49.7677 737.0
49.8345 663.0
49.9013 681.0
49.9682 691.0
50.035 710.0
50.1019 666.0
50.1687 666.0
50.2356 664.0
50.3024 649.0
50.3693 667.0
50.4361 672.0
50.503 684.0
50.5698 693.0
50.6366 659.0
50.7035 696.0
50.7703 703.0
50.8372 657.0
50.904 683.0
50.9709 646.0
51.0377 651.0
51.1046 684.0
51.1714 648.0
51.2382 698.0
51.3051 653.0
51.3719 649.0
51.4388 603.0
51.5056 587.0
51.5725 656.0
51.6393 645.0
51.7062 579.0
51.773 585.0
51.8399 634.0
51.9067 600.0
51.9735 570.0
52.0404 584.0
52.1072 637.0
52.1741 602.0
52.2409 549.0
52.3078 601.0
52.3746 552.0
52.4415 578.0
52.5083 631.0
52.5751 621.0
52.642 631.0
52.7088 539.0
52.7757 603.0
52.8425 606.0
52.9094 543.0
52.9762 516.0
53.0431 563.0
53.1099 599.0
53.1768 550.0
53.2436 594.0
53.3104 606.0
53.3773 600.0
53.4441 625.0
53.511 587.0
53.5778 587.0
53.6447 604.0
53.7115 616.0
53.7784 583.0
53.8452 565.0
53.9121 519.0
53.9789 569.0
54.0457 559.0
54.1126 574.0
54.1794 569.0
54.2463 594.0
54.3131 527.0
54.38 551.0
54.4468 552.0
54.5137 574.0
54.5805 548.0
54.6473 554.0
54.7142 531.0
54.781 538.0
54.8479 527.0
54.9147 544.0
54.9816 553.0
55.0484 524.0
55.1153 571.0
55.1821 538.0
55.249 583.0
55.3158 553.0
55.3826 566.0
55.4495 598.0
55.5163 620.0
55.5832 597.0
55.65 649.0
55.7169 683.0
55.7837 616.0
55.8506 575.0
55.9174 583.0
55.9842 667.0
56.0511 635.0
56.1179 669.0
56.1848 621.0
56.2516 651.0
56.3185 589.0
56.3853 622.0
56.4522 600.0
56.519 579.0
56.5859 594.0
56.6527 580.0
56.7195 580.0
56.7864 575.0
56.8532 539.0
56.9201 560.0
56.9869 597.0
57.0538 541.0
57.1206 514.0
57.1875 529.0
57.2543 560.0
57.3212 528.0
57.388 462.0
57.4548 474.0
57.5217 536.0
57.5885 527.0
57.6554 512.0
57.7222 481.0
57.7891 492.0
57.8559 496.0
57.9228 507.0
57.9896 451.0
58.0564 489.0
58.1233 503.0
58.1901 479.0
58.257 483.0
58.3238 494.0
58.3907 502.0
58.4575 525.0
58.5244 463.0
58.5912 514.0
58.6581 503.0
58.7249 494.0
58.7917 477.0
58.8586 490.0
58.9254 482.0
58.9923 497.0
59.0591 538.0
59.126 536.0
59.1928 502.0
59.2597 528.0
59.3265 519.0
59.3933 537.0
59.4602 578.0
59.527 584.0
59.5939 568.0
59.6607 542.0
59.7276 579.0
59.7944 550.0
59.8613 547.0
59.9281 535.0
59.995 561.0
60.0618 572.0
60.1286 533.0
60.1955 522.0
60.2623 509.0
60.3292 519.0
60.396 506.0
60.4629 551.0
60.5297 547.0
60.5966 522.0
60.6634 518.0
60.7302 509.0
60.7971 529.0
60.8639 512.0
60.9308 483.0
60.9976 504.0
61.0645 529.0
61.1313 488.0
61.1982 526.0
61.265 502.0
61.3319 552.0
61.3987 565.0
61.4655 569.0
61.5324 547.0
61.5992 545.0
61.6661 583.0
61.7329 542.0
61.7998 537.0
61.8666 461.0
61.9335 519.0
62.0003 489.0
62.0672 526.0
62.134 481.0
62.2008 502.0
62.2677 508.0
62.3345 487.0
62.4014 532.0
62.4682 478.0
62.5351 517.0
62.6019 526.0
62.6688 539.0
62.7356 486.0
62.8024 505.0
62.8693 463.0
62.9361 442.0
63.003 507.0
63.0698 517.0
63.1367 511.0
63.2035 470.0
63.2704 519.0
63.3372 541.0
63.4041 469.0
63.4709 519.0
63.5377 528.0
63.6046 521.0
63.6714 502.0
63.7383 538.0
63.8051 521.0
63.872 559.0
63.9388 547.0
64.0057 503.0
64.0725 504.0
64.1393 504.0
64.2062 516.0
64.273 505.0
64.3399 509.0
64.4067 513.0
64.4736 548.0
64.5404 481.0
64.6073 474.0
64.6741 508.0
64.741 465.0
64.8078 532.0
64.8746 502.0
64.9415 500.0
65.0083 481.0
65.0752 486.0
65.142 481.0
65.2089 467.0
65.2757 487.0
65.3426 467.0
65.4094 490.0
65.4762 519.0
65.5431 489.0
65.6099 470.0
65.6768 529.0
65.7436 480.0
65.8105 548.0
65.8773 503.0
65.9442 500.0
66.011 475.0
66.0779 534.0
66.1447 512.0
66.2115 542.0
66.2784 536.0
66.3452 536.0
66.4121 533.0
66.4789 511.0
66.5458 518.0
66.6126 485.0
66.6795 510.0
66.7463 581.0
66.8132 592.0
66.88 537.0
66.9468 555.0
67.0137 573.0
67.0805 514.0
67.1474 571.0
67.2142 599.0
67.2811 545.0
67.3479 564.0
67.4148 518.0
67.4816 542.0
67.5484 570.0
67.6153 527.0
67.6821 487.0
67.749 504.0
67.8158 480.0
67.8827 510.0
67.9495 486.0
68.0164 498.0
68.0832 504.0
68.1501 489.0
68.2169 539.0
68.2837 461.0
68.3506 453.0
68.4174 477.0
68.4843 478.0
68.5511 509.0
68.618 458.0
68.6848 497.0
68.7517 470.0
68.8185 479.0
68.8853 479.0
68.9522 442.0
69.019 504.0
69.0859 441.0
69.1527 471.0
69.2196 450.0
69.2864 432.0
69.3533 470.0
69.4201 465.0
69.487 470.0
69.5538 466.0
69.6206 445.0
69.6875 460.0
69.7543 508.0
69.8212 485.0
69.888 459.0
69.9549 497.0
70.0217 469.0
70.0886 481.0
70.1554 532.0
70.2222 565.0
70.2891 539.0
70.3559 531.0
70.4228 539.0
70.4896 543.0
70.5565 574.0
70.6233 502.0
70.6902 537.0
70.757 527.0
70.8239 531.0
70.8907 464.0
70.9575 475.0
71.0244 497.0
71.0912 478.0
71.1581 467.0
71.2249 479.0
71.2918 453.0
71.3586 461.0
71.4255 425.0
71.4923 479.0
71.5592 436.0
71.626 470.0
71.6928 486.0
71.7597 454.0
71.8265 457.0
71.8934 471.0
71.9602 490.0
72.0271 444.0
72.0939 481.0
72.1608 443.0
72.2276 447.0
72.2944 457.0
72.3613 432.0
72.4281 451.0
72.495 435.0
72.5618 446.0
72.6287 482.0
72.6955 413.0
72.7624 449.0
72.8292 430.0
72.8961 415.0
72.9629 483.0
73.0297 442.0
73.0966 431.0
73.1634 488.0
73.2303 438.0
73.2971 456.0
73.364 481.0
73.4308 448.0
73.4977 444.0
73.5645 418.0
73.6313 414.0
73.6982 414.0
73.765 455.0
73.8319 400.0
73.8987 418.0
73.9656 371.0
74.0324 416.0
74.0993 403.0
74.1661 455.0
74.233 422.0
74.2998 399.0
74.3666 479.0
74.4335 385.0
74.5003 413.0
74.5672 453.0
74.634 424.0
74.7009 450.0
74.7677 433.0
74.8346 371.0
74.9014 388.0
74.9683 434.0
75.0351 449.0
75.1019 424.0
75.1688 403.0
75.2356 457.0
75.3025 418.0
75.3693 438.0
75.4362 377.0
75.503 438.0
75.5699 415.0
75.6367 412.0
75.7035 425.0
75.7704 427.0
75.8372 388.0
75.9041 368.0
75.9709 416.0
76.0378 436.0
76.1046 394.0
76.1715 433.0
76.2383 406.0
76.3052 402.0
76.372 403.0
76.4388 418.0
76.5057 408.0
76.5725 422.0
76.6394 415.0
76.7062 406.0
76.7731 403.0
76.8399 383.0
76.9068 409.0
76.9736 397.0
77.0404 388.0
77.1073 380.0
77.1741 384.0
77.241 353.0
77.3078 382.0
77.3747 379.0
77.4415 383.0
77.5084 397.0
77.5752 351.0
77.6421 403.0
77.7089 367.0
77.7757 376.0
77.8426 380.0
77.9094 410.0
77.9763 353.0
78.0431 420.0
78.11 399.0
78.1768 377.0
78.2437 381.0
78.3105 372.0
78.3773 342.0
78.4442 357.0
78.511 376.0
78.5779 341.0
78.6447 363.0
78.7116 337.0
78.7784 352.0
78.8453 379.0
78.9121 385.0
78.979 356.0
79.0458 340.0
79.1126 321.0
79.1795 406.0
79.2463 354.0
79.3132 355.0
79.38 363.0
79.4469 342.0
79.5137 320.0
79.5806 357.0
79.6474 346.0
79.7143 344.0
79.7811 328.0
79.8479 360.0
79.9148 348.0
79.9816 315.0
80.0485 339.0
80.1153 325.0
80.1822 363.0
80.249 317.0
80.3159 348.0
80.3827 365.0
80.4495 321.0
80.5164 310.0
80.5832 350.0
80.6501 351.0
80.7169 362.0
80.7838 324.0
80.8506 365.0
80.9175 346.0
80.9843 342.0
81.0512 331.0
81.118 357.0
81.1848 344.0
81.2517 333.0
81.3185 350.0
81.3854 332.0
81.4522 293.0
81.5191 276.0
81.5859 326.0
81.6528 298.0
81.7196 349.0
81.7864 314.0
81.8533 300.0
81.9201 334.0
81.987 325.0
82.0538 280.0
82.1207 272.0
82.1875 292.0
82.2544 299.0
82.3212 298.0
82.3881 284.0
82.4549 309.0
82.5217 323.0
82.5886 303.0
82.6554 332.0
82.7223 289.0
82.7891 332.0
82.856 297.0
82.9228 319.0
82.9897 342.0
83.0565 325.0
83.1233 298.0
83.1902 316.0
83.257 298.0
83.3239 304.0
83.3907 287.0
83.4576 305.0
83.5244 300.0
83.5913 292.0
83.6581 301.0
83.725 334.0
83.7918 289.0
83.8586 307.0
83.9255 268.0
83.9923 285.0
84.0592 267.0
84.126 291.0
84.1929 298.0
84.2597 285.0
84.3266 300.0
84.3934 314.0
84.4603 290.0
84.5271 284.0
84.5939 286.0
84.6608 261.0
84.7276 275.0
84.7945 308.0
84.8613 274.0
84.9282 273.0
84.995 269.0
85.0619 257.0
85.1287 258.0
85.1955 287.0
85.2624 263.0
85.3292 266.0
85.3961 254.0
85.4629 259.0
85.5298 282.0
85.5966 290.0
85.6635 266.0
85.7303 261.0
85.7972 257.0
85.864 269.0
85.9308 242.0
85.9977 254.0
86.0645 274.0
86.1314 251.0
86.1982 248.0
86.2651 251.0
86.3319 225.0
86.3988 258.0
86.4656 245.0
86.5324 285.0
86.5993 236.0
86.6661 244.0
86.733 258.0
86.7998 258.0
86.8667 260.0
86.9335 231.0
87.0004 266.0
87.0672 250.0
87.1341 254.0
87.2009 274.0
87.2677 230.0
87.3346 272.0
87.4014 262.0
87.4683 253.0
87.5351 275.0
87.602 260.0
87.6688 236.0
87.7357 243.0
87.8025 229.0
87.8693 254.0
87.9362 228.0
88.003 248.0
88.0699 241.0
88.1367 237.0
88.2036 257.0
88.2704 272.0
88.3373 248.0
88.4041 209.0
88.471 262.0
88.5378 243.0
88.6046 248.0
88.6715 245.0
88.7383 247.0
88.8052 260.0
88.872 238.0
88.9389 241.0
89.0057 279.0
89.0726 242.0
89.1394 263.0
89.2063 240.0
89.2731 264.0
89.3399 223.0
89.4068 259.0
89.4736 240.0
89.5405 262.0
89.6073 230.0
89.6742 245.0
89.741 243.0
89.8079 227.0
89.8747 252.0
89.9415 246.0