File: code/XRD_Analysis/External Sources/Alex_SAPO/20230311_SAPO-18_230301_oldauto_d_calc550C.xy
4.98146 4375.0
5.0483 4307.0
5.11515 4305.0
5.18199 4121.0
5.24884 4081.0
5.31568 3967.0
5.38253 3812.0
5.44937 3913.0
5.51622 3839.0
5.58306 3873.0
5.64991 3726.0
5.71675 3711.0
5.7836 3684.0
5.85044 3647.0
5.91729 3533.0
5.98413 3468.0
6.05098 3459.0
6.11782 3481.0
6.18467 3351.0
6.25151 3405.0
6.31836 3302.0
6.3852 3223.0
6.45205 3230.0
6.51889 3242.0
6.58574 3221.0
6.65258 3114.0
6.71943 3177.0
6.78627 2979.0
6.85312 3104.0
6.91996 3007.0
6.98681 2973.0
7.05365 3051.0
7.1205 2996.0
7.18734 2865.0
7.25419 2806.0
7.32103 3033.0
7.38788 2821.0
7.45472 2877.0
7.52157 2838.0
7.58841 2747.0
7.65526 2756.0
7.7221 2764.0
7.78895 2648.0
7.85579 2712.0
7.92264 2698.0
7.98948 2683.0
8.05633 2648.0
8.12317 2785.0
8.19002 2694.0
8.25686 2670.0
8.32371 2601.0
8.39055 2678.0
8.4574 2578.0
8.52424 2620.0
8.59109 2650.0
8.65793 2736.0
8.72478 2614.0
8.79162 2700.0
8.85847 2706.0
8.92532 2799.0
8.99216 2878.0
9.05901 2954.0
9.12585 3286.0
9.1927 3771.0
9.25954 4510.0
9.32639 6408.0
9.39323 11089.0
9.46008 21404.0
9.52692 33287.0
9.59377 27582.0
9.66061 18184.0
9.72746 9945.0
9.7943 5844.0
9.86115 4200.0
9.92799 3598.0
9.99484 3161.0
10.0617 2948.0
10.1285 3024.0
10.1954 2953.0
10.2622 2902.0
10.3291 3083.0
10.3959 3323.0
10.4628 3868.0
10.5296 4908.0
10.5964 6268.0
10.6633 7275.0
10.7301 6184.0
10.797 4567.0
10.8638 3662.0
10.9307 3103.0
10.9975 2770.0
11.0644 2583.0
11.1312 2437.0
11.198 2468.0
11.2649 2301.0
11.3317 2352.0
11.3986 2274.0
11.4654 2173.0
11.5323 2153.0
11.5991 2164.0
11.666 2107.0
11.7328 2224.0
11.7997 2153.0
11.8665 2094.0
11.9333 2105.0
12.0002 2094.0
12.067 2047.0
12.1339 2121.0
12.2007 2105.0
12.2676 2100.0
12.3344 2074.0
12.4013 2186.0
12.4681 2212.0
12.5349 2228.0
12.6018 2344.0
12.6686 2444.0
12.7355 2944.0
12.8023 4065.0
12.8692 6179.0
12.936 8028.0
13.0029 6270.0
13.0697 3866.0
13.1366 2900.0
13.2034 2464.0
13.2702 2361.0
13.3371 2521.0
13.4039 2775.0
13.4708 3446.0
13.5376 4020.0
13.6045 3758.0
13.6713 3106.0
13.7382 2539.0
13.805 2308.0
13.8719 2244.0
13.9387 2420.0
14.0055 2573.0
14.0724 2406.0
14.1392 2174.0
14.2061 2035.0
14.2729 2027.0
14.3398 2006.0
14.4066 1942.0
14.4735 1955.0
14.5403 2020.0
14.6071 2023.0
14.674 2011.0
14.7408 2121.0
14.8077 2163.0
14.8745 2076.0
14.9414 2050.0
15.0082 2008.0
15.0751 1998.0
15.1419 1966.0
15.2088 2010.0
15.2756 1947.0
15.3424 2051.0
15.4093 2087.0
15.4761 2122.0
15.543 2190.0
15.6098 2081.0
15.6767 2173.0
15.7435 2406.0
15.8104 2418.0
15.8772 2759.0
15.944 3345.0
16.0109 4545.0
16.0777 5869.0
16.1446 6706.0
16.2114 5957.0
16.2783 4820.0
16.3451 3697.0
16.412 3033.0
16.4788 2851.0
16.5457 2719.0
16.6125 2911.0
16.6793 3035.0
16.7462 3417.0
16.813 4036.0
16.8799 5609.0
16.9467 8082.0
17.0136 10707.0
17.0804 10291.0
17.1473 7980.0
17.2141 7118.0
17.2809 7429.0
17.3478 7282.0
17.4146 6367.0
17.4815 5224.0
17.5483 4284.0
17.6152 3756.0
17.682 3331.0
17.7489 3111.0
17.8157 2804.0
17.8826 2785.0
17.9494 2751.0
18.0162 2596.0
18.0831 2475.0
18.1499 2513.0
18.2168 2372.0
18.2836 2450.0
18.3505 2440.0
18.4173 2425.0
18.4842 2413.0
18.551 2350.0
18.6179 2466.0
18.6847 2439.0
18.7515 2502.0
18.8184 2540.0
18.8852 2756.0
18.9521 2892.0
19.0189 3314.0
19.0858 4225.0
19.1526 4637.0
19.2195 3772.0
19.2863 3345.0
19.3531 3263.0
19.42 3077.0
19.4868 3100.0
19.5537 3240.0
19.6205 3623.0
19.6874 4178.0
19.7542 4220.0
19.8211 3956.0
19.8879 3664.0
19.9548 3730.0
20.0216 3875.0
20.0884 4485.0
20.1553 5054.0
20.2221 5348.0
20.289 5062.0
20.3558 4671.0
20.4227 4935.0
20.4895 5474.0
20.5564 6081.0
20.6232 8138.0
20.69 10079.0
20.7569 9441.0
20.8237 6896.0
20.8906 5382.0
20.9574 4643.0
21.0243 4497.0
21.0911 4734.0
21.158 5179.0
21.2248 5812.0
21.2917 6977.0
21.3585 8179.0
21.4253 10810.0
21.4922 11712.0
21.559 10819.0
21.6259 10110.0
21.6927 11877.0
21.7596 17084.0
21.8264 14749.0
21.8933 6626.0
21.9601 4669.0
22.0269 4147.0
22.0938 3922.0
22.1606 3838.0
22.2275 3563.0
22.2943 3650.0
22.3612 3518.0
22.428 3468.0
22.4949 3663.0
22.5617 4036.0
22.6286 4239.0
22.6954 3992.0
22.7622 3841.0
22.8291 3745.0
22.8959 3738.0
22.9628 3656.0
23.0296 3756.0
23.0965 4160.0
23.1633 4548.0
23.2302 4639.0
23.297 4805.0
23.3639 4358.0
23.4307 3973.0
23.4975 4051.0
23.5644 4110.0
23.6312 4279.0
23.6981 4608.0
23.7649 5242.0
23.8318 6182.0
23.8986 7745.0
23.9655 9341.0
24.0323 10719.0
24.0991 10813.0
24.166 9555.0
24.2328 8066.0
24.2997 6321.0
24.3665 5210.0
24.4334 4615.0
24.5002 4369.0
24.5671 4151.0
24.6339 3938.0
24.7008 3890.0
24.7676 3730.0
24.8344 3725.0
24.9013 3772.0
24.9681 3691.0
25.035 3898.0
25.1018 3927.0
25.1687 4035.0
25.2355 4025.0
25.3024 4148.0
25.3692 4326.0
25.436 4524.0
25.5029 4344.0
25.5697 4266.0
25.6366 4431.0
25.7034 4264.0
25.7703 4480.0
25.8371 4677.0
25.904 5503.0
25.9708 6338.0
26.0377 7242.0
26.1045 7104.0
26.1713 6521.0
26.2382 5850.0
26.305 5794.0
26.3719 6227.0
26.4387 6935.0
26.5056 7063.0
26.5724 6484.0
26.6393 5544.0
26.7061 4669.0
26.773 4372.0
26.8398 4036.0
26.9066 3894.0
26.9735 3802.0
27.0403 3751.0
27.1072 3849.0
27.174 3847.0
27.2409 3877.0
27.3077 3851.0
27.3746 3793.0
27.4414 3842.0
27.5082 3929.0
27.5751 3982.0
27.6419 4073.0
27.7088 4410.0
27.7756 4826.0
27.8425 4981.0
27.9093 5517.0
27.9762 5930.0
28.043 6579.0
28.1099 7168.0
28.1767 7733.0
28.2435 7689.0
28.3104 6354.0
28.3772 5352.0
28.4441 4623.0
28.5109 4234.0
28.5778 4257.0
28.6446 4113.0
28.7115 3937.0
28.7783 3825.0
28.8451 3701.0
28.912 3695.0
28.9788 3600.0
29.0457 3656.0
29.1125 3639.0
29.1794 3584.0
29.2462 3773.0
29.3131 3804.0
29.3799 3945.0
29.4468 4016.0
29.5136 4273.0
29.5804 4397.0
29.6473 4677.0
29.7141 4863.0
29.781 4892.0
29.8478 4728.0
29.9147 4701.0
29.9815 5017.0
30.0484 5516.0
30.1152 5841.0
30.182 5821.0
30.2489 5369.0
30.3157 5108.0
30.3826 5176.0
30.4494 5348.0
30.5163 5565.0
30.5831 5744.0
30.65 5927.0
30.7168 6173.0
30.7837 6433.0
30.8505 6423.0
30.9173 6532.0
30.9842 6805.0
31.051 7972.0
31.1179 9476.0
31.1847 11113.0
31.2516 10782.0
31.3184 9811.0
31.3853 8681.0
31.4521 7133.0
31.519 6114.0
31.5858 5369.0
31.6526 4958.0
31.7195 4707.0
31.7863 4590.0
31.8532 4772.0
31.92 4798.0
31.9869 4505.0
32.0537 4249.0
32.1206 4116.0
32.1874 4157.0
32.2542 4428.0
32.3211 4903.0
32.3879 5116.0
32.4548 5408.0
32.5216 5369.0
32.5885 4954.0
32.6553 4784.0
32.7222 4738.0
32.789 4655.0
32.8559 4729.0
32.9227 4691.0
32.9895 4844.0
33.0564 4874.0
33.1232 4499.0
33.1901 4243.0
33.2569 4014.0
33.3238 3764.0
33.3906 3480.0
33.4575 3305.0
33.5243 3073.0
33.5911 2896.0
33.658 2809.0
33.7248 2826.0
33.7917 3019.0
33.8585 2945.0
33.9254 2871.0
33.9922 2671.0
34.0591 2661.0
34.1259 2538.0
34.1928 2499.0
34.2596 2448.0
34.3264 2560.0
34.3933 2646.0
34.4601 2646.0
34.527 2648.0
34.5938 2549.0
34.6607 2537.0
34.7275 2409.0
34.7944 2417.0
34.8612 2468.0
34.928 2574.0
34.9949 2558.0
35.0617 2505.0
35.1286 2527.0
35.1954 2431.0
35.2623 2433.0
35.3291 2317.0
35.396 2424.0
35.4628 2390.0
35.5297 2572.0
35.5965 2515.0
35.6633 2902.0
35.7302 3665.0
35.797 3861.0
35.8639 3404.0
35.9307 2883.0
35.9976 3055.0
36.0644 2847.0
36.1313 2562.0
36.1981 2443.0
36.265 2345.0
36.3318 2378.0
36.3986 2328.0
36.4655 2486.0
36.5323 2432.0
36.5992 2355.0
36.666 2395.0
36.7329 2262.0
36.7997 2291.0
36.8666 2229.0
36.9334 2105.0
37.0002 2023.0
37.0671 2089.0
37.1339 2007.0
37.2008 1903.0
37.2676 2023.0
37.3345 1893.0
37.4013 1971.0
37.4682 2058.0
37.535 1778.0
37.6019 1898.0
37.6687 1843.0
37.7355 1836.0
37.8024 1716.0
37.8692 1785.0
37.9361 1766.0
38.0029 1826.0
38.0698 1791.0
38.1366 1831.0
38.2035 1817.0
38.2703 1718.0
38.3371 1783.0
38.404 1764.0
38.4708 1667.0
38.5377 1746.0
38.6045 1762.0
38.6714 1815.0
38.7382 1883.0
38.8051 1803.0
38.8719 1812.0
38.9388 1763.0
39.0056 1817.0
39.0724 1895.0
39.1393 1908.0
39.2061 1993.0
39.273 1888.0
39.3398 2005.0
39.4067 2031.0
39.4735 1935.0
39.5404 1898.0
39.6072 1977.0
39.6741 1897.0
39.7409 1897.0
39.8077 1837.0
39.8746 1800.0
39.9414 1822.0
40.0083 1738.0
40.0751 1767.0
40.142 1792.0
40.2088 1782.0
40.2757 1775.0
40.3425 1865.0
40.4093 1787.0
40.4762 1820.0
40.543 1796.0
40.6099 1783.0
40.6767 1754.0
40.7436 1804.0
40.8104 1839.0
40.8773 1788.0
40.9441 1808.0
41.011 1856.0
41.0778 1850.0
41.1446 1831.0
41.2115 1832.0
41.2783 1849.0
41.3452 1840.0
41.412 1978.0
41.4789 1884.0
41.5457 1918.0
41.6126 1944.0
41.6794 1888.0
41.7462 1947.0
41.8131 2066.0
41.8799 1984.0
41.9468 1966.0
42.0136 1920.0
42.0805 1873.0
42.1473 1866.0
42.2142 2059.0
42.281 2076.0
42.3479 1999.0
42.4147 1849.0
42.4815 1842.0
42.5484 1743.0
42.6152 1852.0
42.6821 1742.0
42.7489 1748.0
42.8158 1765.0
42.8826 1671.0
42.9495 1764.0
43.0163 1752.0
43.0831 1836.0
43.15 1915.0
43.2168 1928.0
43.2837 2010.0
43.3505 1922.0
43.4174 2035.0
43.4842 2023.0
43.5511 2014.0
43.6179 1927.0
43.6848 1829.0
43.7516 1924.0
43.8184 1830.0
43.8853 1869.0
43.9521 1812.0
44.019 1839.0
44.0858 1835.0
44.1527 1868.0
44.2195 1810.0
44.2864 1853.0
44.3532 1947.0
44.4201 2023.0
44.4869 1720.0
44.5537 1872.0
44.6206 1777.0
44.6874 1752.0
44.7543 1740.0
44.8211 1805.0
44.888 1756.0
44.9548 1743.0
45.0217 1735.0
45.0885 1670.0
45.1553 1762.0
45.2222 1720.0
45.289 1755.0
45.3559 1723.0
45.4227 1751.0
45.4896 1740.0
45.5564 1697.0
45.6233 1681.0
45.6901 1698.0
45.757 1637.0
45.8238 1754.0
45.8906 1762.0
45.9575 1714.0
46.0243 1699.0
46.0912 1668.0
46.158 1725.0
46.2249 1669.0
46.2917 1732.0
46.3586 1873.0
46.4254 1914.0
46.4922 2074.0
46.5591 2310.0
46.6259 2055.0
46.6928 1995.0
46.7596 1838.0
46.8265 1690.0
46.8933 1702.0
46.9602 1759.0
47.027 1770.0
47.0939 1688.0
47.1607 1636.0
47.2275 1730.0
47.2944 1655.0
47.3612 1714.0
47.4281 1713.0
47.4949 1800.0
47.5618 1609.0
47.6286 1628.0
47.6955 1659.0
47.7623 1705.0
47.8291 1624.0
47.896 1741.0
47.9628 1787.0
48.0297 1951.0
48.0965 2048.0
48.1634 2326.0
48.2302 2050.0
48.2971 2025.0
48.3639 1792.0
48.4308 1720.0
48.4976 1752.0
48.5644 1705.0
48.6313 1686.0
48.6981 1736.0
48.765 1676.0
48.8318 1699.0
48.8987 1815.0
48.9655 1822.0
49.0324 1945.0
49.0992 2007.0
49.1661 2155.0
49.2329 2161.0
49.2997 2234.0
49.3666 2148.0
49.4334 2218.0
49.5003 2227.0
49.5671 2196.0
49.634 2117.0
49.7008 2058.0
49.7677 2036.0
49.8345 1995.0
49.9013 2022.0
49.9682 1918.0
50.035 1899.0
50.1019 1919.0
50.1687 1979.0
50.2356 1845.0
50.3024 1985.0
50.3693 1889.0
50.4361 1964.0
50.503 1947.0
50.5698 2014.0
50.6366 1926.0
50.7035 1990.0
50.7703 2020.0
50.8372 1870.0
50.904 1959.0
50.9709 2019.0
51.0377 1896.0
51.1046 1981.0
51.1714 1942.0
51.2382 1844.0
51.3051 1985.0
51.3719 1810.0
51.4388 1887.0
51.5056 1852.0
51.5725 1848.0
51.6393 1819.0
51.7062 1873.0
51.773 1871.0
51.8399 1786.0
51.9067 1798.0
51.9735 1718.0
52.0404 1729.0
52.1072 1757.0
52.1741 1773.0
52.2409 1737.0
52.3078 1798.0
52.3746 1728.0
52.4415 1708.0
52.5083 1748.0
52.5751 1661.0
52.642 1780.0
52.7088 1692.0
52.7757 1677.0
52.8425 1701.0
52.9094 1746.0
52.9762 1629.0
53.0431 1571.0
53.1099 1696.0
53.1768 1674.0
53.2436 1661.0
53.3104 1772.0
53.3773 1702.0
53.4441 1797.0
53.511 1802.0
53.5778 1995.0
53.6447 1881.0
53.7115 1746.0
53.7784 1796.0
53.8452 1687.0
53.9121 1624.0
53.9789 1645.0
54.0457 1612.0
54.1126 1677.0
54.1794 1694.0
54.2463 1702.0
54.3131 1667.0
54.38 1574.0
54.4468 1491.0
54.5137 1574.0
54.5805 1569.0
54.6473 1676.0
54.7142 1609.0
54.781 1701.0
54.8479 1606.0
54.9147 1556.0
54.9816 1592.0
55.0484 1628.0
55.1153 1569.0
55.1821 1615.0
55.249 1626.0
55.3158 1590.0
55.3826 1693.0
55.4495 1631.0
55.5163 1719.0
55.5832 1778.0
55.65 1821.0
55.7169 1687.0
55.7837 1788.0
55.8506 1818.0
55.9174 1891.0
55.9842 1813.0
56.0511 1779.0
56.1179 1895.0
56.1848 1840.0
56.2516 1768.0
56.3185 1805.0
56.3853 1789.0
56.4522 1778.0
56.519 1913.0
56.5859 1973.0
56.6527 1856.0
56.7195 1765.0
56.7864 1810.0
56.8532 1676.0
56.9201 1707.0
56.9869 1556.0
57.0538 1570.0
57.1206 1557.0
57.1875 1551.0
57.2543 1608.0
57.3212 1442.0
57.388 1523.0
57.4548 1468.0
57.5217 1470.0
57.5885 1539.0
57.6554 1451.0
57.7222 1380.0
57.7891 1473.0
57.8559 1527.0
57.9228 1522.0
57.9896 1403.0
58.0564 1519.0
58.1233 1612.0
58.1901 1740.0
58.257 1585.0
58.3238 1582.0
58.3907 1500.0
58.4575 1489.0
58.5244 1441.0
58.5912 1413.0
58.6581 1379.0
58.7249 1464.0
58.7917 1476.0
58.8586 1478.0
58.9254 1459.0
58.9923 1525.0
59.0591 1449.0
59.126 1488.0
59.1928 1575.0
59.2597 1531.0
59.3265 1547.0
59.3933 1549.0
59.4602 1554.0
59.527 1624.0
59.5939 1590.0
59.6607 1775.0
59.7276 1926.0
59.7944 1803.0
59.8613 1756.0
59.9281 1710.0
59.995 1596.0
60.0618 1590.0
60.1286 1639.0
60.1955 1465.0
60.2623 1485.0
60.3292 1517.0
60.396 1458.0
60.4629 1477.0
60.5297 1449.0
60.5966 1482.0
60.6634 1447.0
60.7302 1455.0
60.7971 1529.0
60.8639 1466.0
60.9308 1525.0
60.9976 1461.0
61.0645 1451.0
61.1313 1521.0
61.1982 1512.0
61.265 1478.0
61.3319 1538.0
61.3987 1792.0
61.4655 1654.0
61.5324 1706.0
61.5992 1563.0
61.6661 1471.0
61.7329 1521.0
61.7998 1459.0
61.8666 1479.0
61.9335 1451.0
62.0003 1432.0
62.0672 1459.0
62.134 1338.0
62.2008 1431.0
62.2677 1423.0
62.3345 1327.0
62.4014 1415.0
62.4682 1353.0
62.5351 1371.0
62.6019 1359.0
62.6688 1375.0
62.7356 1421.0
62.8024 1429.0
62.8693 1345.0
62.9361 1393.0
63.003 1389.0
63.0698 1347.0
63.1367 1426.0
63.2035 1421.0
63.2704 1360.0
63.3372 1334.0
63.4041 1411.0
63.4709 1415.0
63.5377 1441.0
63.6046 1455.0
63.6714 1440.0
63.7383 1408.0
63.8051 1487.0
63.872 1427.0
63.9388 1432.0
64.0057 1472.0
64.0725 1514.0
64.1393 1505.0
64.2062 1383.0
64.273 1489.0
64.3399 1461.0
64.4067 1537.0
64.4736 1574.0
64.5404 1577.0
64.6073 1562.0
64.6741 1427.0
64.741 1487.0
64.8078 1463.0
64.8746 1456.0
64.9415 1556.0
65.0083 1433.0
65.0752 1472.0
65.142 1400.0
65.2089 1451.0
65.2757 1415.0
65.3426 1354.0
65.4094 1323.0
65.4762 1366.0
65.5431 1392.0
65.6099 1427.0
65.6768 1351.0
65.7436 1350.0
65.8105 1407.0
65.8773 1397.0
65.9442 1348.0
66.011 1415.0
66.0779 1390.0
66.1447 1491.0
66.2115 1522.0
66.2784 1426.0
66.3452 1421.0
66.4121 1431.0
66.4789 1459.0
66.5458 1484.0
66.6126 1293.0
66.6795 1371.0
66.7463 1374.0
66.8132 1446.0
66.88 1357.0
66.9468 1384.0
67.0137 1501.0
67.0805 1491.0
67.1474 1518.0
67.2142 1503.0
67.2811 1484.0
67.3479 1523.0
67.4148 1535.0
67.4816 1521.0
67.5484 1379.0
67.6153 1452.0
67.6821 1449.0
67.749 1458.0
67.8158 1453.0
67.8827 1576.0
67.9495 1494.0
68.0164 1454.0
68.0832 1437.0
68.1501 1407.0
68.2169 1329.0
68.2837 1340.0
68.3506 1360.0
68.4174 1338.0
68.4843 1412.0
68.5511 1362.0
68.618 1390.0
68.6848 1397.0
68.7517 1419.0
68.8185 1513.0
68.8853 1423.0
68.9522 1409.0
69.019 1411.0
69.0859 1374.0
69.1527 1375.0
69.2196 1373.0
69.2864 1347.0
69.3533 1350.0
69.4201 1249.0
69.487 1277.0
69.5538 1364.0
69.6206 1411.0
69.6875 1513.0
69.7543 1407.0
69.8212 1364.0
69.888 1382.0
69.9549 1348.0
70.0217 1339.0
70.0886 1264.0
70.1554 1370.0
70.2222 1314.0
70.2891 1339.0
70.3559 1396.0
70.4228 1349.0
70.4896 1341.0
70.5565 1462.0
70.6233 1448.0
70.6902 1355.0
70.757 1460.0
70.8239 1446.0
70.8907 1404.0
70.9575 1407.0
71.0244 1363.0
71.0912 1344.0
71.1581 1389.0
71.2249 1333.0
71.2918 1340.0
71.3586 1311.0
71.4255 1293.0
71.4923 1299.0
71.5592 1254.0
71.626 1288.0
71.6928 1284.0
71.7597 1269.0
71.8265 1330.0
71.8934 1330.0
71.9602 1439.0
72.0271 1353.0
72.0939 1374.0
72.1608 1397.0
72.2276 1292.0
72.2944 1291.0
72.3613 1253.0
72.4281 1242.0
72.495 1204.0
72.5618 1331.0
72.6287 1332.0
72.6955 1162.0
72.7624 1247.0
72.8292 1239.0
72.8961 1342.0
72.9629 1343.0
73.0297 1291.0
73.0966 1374.0
73.1634 1458.0
73.2303 1415.0
73.2971 1324.0
73.364 1316.0
73.4308 1309.0
73.4977 1333.0
73.5645 1179.0
73.6313 1260.0
73.6982 1202.0
73.765 1224.0
73.8319 1207.0
73.8987 1198.0
73.9656 1219.0
74.0324 1263.0
74.0993 1243.0
74.1661 1202.0
74.233 1162.0
74.2998 1244.0
74.3666 1203.0
74.4335 1162.0
74.5003 1143.0
74.5672 1175.0
74.634 1208.0
74.7009 1178.0
74.7677 1199.0
74.8346 1203.0
74.9014 1155.0
74.9683 1192.0
75.0351 1152.0
75.1019 1158.0
75.1688 1236.0
75.2356 1148.0
75.3025 1174.0
75.3693 1125.0
75.4362 1156.0
75.503 1151.0
75.5699 1162.0
75.6367 1120.0
75.7035 1160.0
75.7704 1146.0
75.8372 1160.0
75.9041 1170.0
75.9709 1167.0
76.0378 1110.0
76.1046 1140.0
76.1715 1177.0
76.2383 1167.0
76.3052 1115.0
76.372 1212.0
76.4388 1191.0
76.5057 1107.0
76.5725 1093.0
76.6394 1145.0
76.7062 1178.0
76.7731 1167.0
76.8399 1125.0
76.9068 1100.0
76.9736 1191.0
77.0404 1064.0
77.1073 1089.0
77.1741 1119.0
77.241 1194.0
77.3078 1168.0
77.3747 1133.0
77.4415 1180.0
77.5084 1121.0
77.5752 1033.0
77.6421 1101.0
77.7089 1081.0
77.7757 1046.0
77.8426 1082.0
77.9094 1094.0
77.9763 1003.0
78.0431 1152.0
78.11 1114.0
78.1768 1064.0
78.2437 1111.0
78.3105 1110.0
78.3773 1048.0
78.4442 1033.0
78.511 1107.0
78.5779 1114.0
78.6447 1135.0
78.7116 1144.0
78.7784 1093.0
78.8453 1081.0
78.9121 1048.0
78.979 1083.0
79.0458 1057.0
79.1126 1044.0
79.1795 1015.0
79.2463 1066.0
79.3132 1020.0
79.38 1008.0
79.4469 1041.0
79.5137 1019.0
79.5806 996.0
79.6474 1015.0
79.7143 1041.0
79.7811 1012.0
79.8479 1014.0
79.9148 1020.0
79.9816 1035.0
80.0485 1007.0
80.1153 1031.0
80.1822 1095.0
80.249 1015.0
80.3159 1160.0
80.3827 991.0
80.4495 1098.0
80.5164 1025.0
80.5832 1011.0
80.6501 1073.0
80.7169 1102.0
80.7838 1017.0
80.8506 997.0
80.9175 1047.0
80.9843 983.0
81.0512 1054.0
81.118 1090.0
81.1848 1002.0
81.2517 995.0
81.3185 914.0
81.3854 939.0
81.4522 963.0
81.5191 939.0
81.5859 964.0
81.6528 963.0
81.7196 965.0
81.7864 923.0
81.8533 940.0
81.9201 913.0
81.987 910.0
82.0538 946.0
82.1207 916.0
82.1875 918.0
82.2544 843.0
82.3212 836.0
82.3881 879.0
82.4549 853.0
82.5217 850.0
82.5886 890.0
82.6554 839.0
82.7223 836.0
82.7891 873.0
82.856 882.0
82.9228 818.0
82.9897 887.0
83.0565 879.0
83.1233 938.0
83.1902 842.0
83.257 885.0
83.3239 878.0
83.3907 770.0
83.4576 845.0
83.5244 818.0
83.5913 870.0
83.6581 856.0
83.725 836.0
83.7918 826.0
83.8586 855.0
83.9255 849.0
83.9923 807.0
84.0592 841.0
84.126 832.0
84.1929 830.0
84.2597 821.0
84.3266 835.0
84.3934 778.0
84.4603 836.0
84.5271 814.0
84.5939 859.0
84.6608 809.0
84.7276 748.0
84.7945 761.0
84.8613 779.0
84.9282 781.0
84.995 757.0
85.0619 796.0
85.1287 793.0
85.1955 846.0
85.2624 761.0
85.3292 773.0
85.3961 781.0
85.4629 729.0
85.5298 758.0
85.5966 764.0
85.6635 767.0
85.7303 746.0
85.7972 763.0
85.864 758.0
85.9308 745.0
85.9977 796.0
86.0645 729.0
86.1314 747.0
86.1982 784.0
86.2651 760.0
86.3319 807.0
86.3988 748.0
86.4656 708.0
86.5324 730.0
86.5993 765.0
86.6661 751.0
86.733 722.0
86.7998 726.0
86.8667 736.0
86.9335 762.0
87.0004 751.0
87.0672 760.0
87.1341 752.0
87.2009 712.0
87.2677 755.0
87.3346 678.0
87.4014 727.0
87.4683 718.0
87.5351 722.0
87.602 758.0
87.6688 726.0
87.7357 756.0
87.8025 775.0
87.8693 804.0
87.9362 731.0
88.003 773.0
88.0699 774.0
88.1367 935.0
88.2036 818.0
88.2704 813.0
88.3373 807.0
88.4041 809.0
88.471 823.0
88.5378 801.0
88.6046 726.0
88.6715 728.0
88.7383 758.0
88.8052 754.0
88.872 737.0
88.9389 728.0
89.0057 686.0
89.0726 655.0
89.1394 704.0
89.2063 695.0
89.2731 631.0
89.3399 667.0
89.4068 713.0
89.4736 720.0
89.5405 680.0
89.6073 697.0
89.6742 707.0
89.741 671.0
89.8079 697.0
89.8747 720.0
89.9415 707.0
89.9583 649.0