File: code/XRD_Analysis/External Sources/Alex_SAPO/20230311_SAPO-18_230301_oldaouto_c_calc550c.xy
4.98146 4391.0
5.0483 4187.0
5.11515 4204.0
5.18199 4222.0
5.24884 4029.0
5.31568 3873.0
5.38253 3911.0
5.44937 3972.0
5.51622 3841.0
5.58306 3841.0
5.64991 3686.0
5.71675 3608.0
5.7836 3606.0
5.85044 3585.0
5.91729 3604.0
5.98413 3510.0
6.05098 3354.0
6.11782 3414.0
6.18467 3425.0
6.25151 3347.0
6.31836 3389.0
6.3852 3182.0
6.45205 3285.0
6.51889 3249.0
6.58574 3166.0
6.65258 3146.0
6.71943 3053.0
6.78627 3091.0
6.85312 3009.0
6.91996 2985.0
6.98681 2932.0
7.05365 3000.0
7.1205 2891.0
7.18734 3077.0
7.25419 2882.0
7.32103 2830.0
7.38788 2782.0
7.45472 2794.0
7.52157 2746.0
7.58841 2684.0
7.65526 2788.0
7.7221 2772.0
7.78895 2728.0
7.85579 2707.0
7.92264 2696.0
7.98948 2660.0
8.05633 2654.0
8.12317 2703.0
8.19002 2719.0
8.25686 2702.0
8.32371 2557.0
8.39055 2600.0
8.4574 2694.0
8.52424 2613.0
8.59109 2651.0
8.65793 2646.0
8.72478 2668.0
8.79162 2706.0
8.85847 2688.0
8.92532 2760.0
8.99216 2983.0
9.05901 3173.0
9.12585 3409.0
9.1927 3777.0
9.25954 4709.0
9.32639 6739.0
9.39323 11434.0
9.46008 21266.0
9.52692 29957.0
9.59377 23323.0
9.66061 16182.0
9.72746 9516.0
9.7943 5897.0
9.86115 4453.0
9.92799 3734.0
9.99484 3354.0
10.0617 3148.0
10.1285 3020.0
10.1954 2890.0
10.2622 3106.0
10.3291 3186.0
10.3959 3287.0
10.4628 3965.0
10.5296 4788.0
10.5964 5901.0
10.6633 6531.0
10.7301 5485.0
10.797 4222.0
10.8638 3514.0
10.9307 3082.0
10.9975 2637.0
11.0644 2601.0
11.1312 2518.0
11.198 2381.0
11.2649 2329.0
11.3317 2228.0
11.3986 2344.0
11.4654 2251.0
11.5323 2181.0
11.5991 2253.0
11.666 2132.0
11.7328 2116.0
11.7997 2081.0
11.8665 2118.0
11.9333 2032.0
12.0002 2051.0
12.067 2096.0
12.1339 2075.0
12.2007 2073.0
12.2676 2065.0
12.3344 2056.0
12.4013 2117.0
12.4681 2147.0
12.5349 2246.0
12.6018 2355.0
12.6686 2579.0
12.7355 2991.0
12.8023 4070.0
12.8692 6009.0
12.936 7236.0
13.0029 5589.0
13.0697 3655.0
13.1366 2793.0
13.2034 2534.0
13.2702 2416.0
13.3371 2504.0
13.4039 2832.0
13.4708 3410.0
13.5376 3720.0
13.6045 3535.0
13.6713 2935.0
13.7382 2549.0
13.805 2409.0
13.8719 2287.0
13.9387 2433.0
14.0055 2567.0
14.0724 2248.0
14.1392 2114.0
14.2061 1994.0
14.2729 2011.0
14.3398 1914.0
14.4066 1976.0
14.4735 1952.0
14.5403 1999.0
14.6071 1992.0
14.674 2051.0
14.7408 2110.0
14.8077 2114.0
14.8745 2097.0
14.9414 2009.0
15.0082 1960.0
15.0751 1964.0
15.1419 2069.0
15.2088 1960.0
15.2756 2014.0
15.3424 2131.0
15.4093 2029.0
15.4761 2063.0
15.543 2104.0
15.6098 2182.0
15.6767 2158.0
15.7435 2271.0
15.8104 2407.0
15.8772 2773.0
15.944 3235.0
16.0109 4260.0
16.0777 5334.0
16.1446 5841.0
16.2114 5319.0
16.2783 4566.0
16.3451 3696.0
16.412 3131.0
16.4788 2947.0
16.5457 2822.0
16.6125 2857.0
16.6793 2989.0
16.7462 3416.0
16.813 4125.0
16.8799 5407.0
16.9467 7510.0
17.0136 9761.0
17.0804 9211.0
17.1473 7511.0
17.2141 6625.0
17.2809 6516.0
17.3478 6472.0
17.4146 5812.0
17.4815 4723.0
17.5483 4203.0
17.6152 3621.0
17.682 3271.0
17.7489 3081.0
17.8157 2952.0
17.8826 2800.0
17.9494 2649.0
18.0162 2543.0
18.0831 2535.0
18.1499 2416.0
18.2168 2434.0
18.2836 2341.0
18.3505 2369.0
18.4173 2334.0
18.4842 2358.0
18.551 2436.0
18.6179 2325.0
18.6847 2439.0
18.7515 2459.0
18.8184 2484.0
18.8852 2618.0
18.9521 2727.0
19.0189 3413.0
19.0858 4133.0
19.1526 4109.0
19.2195 3594.0
19.2863 3231.0
19.3531 3088.0
19.42 2945.0
19.4868 2985.0
19.5537 3136.0
19.6205 3587.0
19.6874 3945.0
19.7542 4049.0
19.8211 3787.0
19.8879 3828.0
19.9548 3605.0
20.0216 4233.0
20.0884 4672.0
20.1553 5309.0
20.2221 5659.0
20.289 5942.0
20.3558 5652.0
20.4227 5637.0
20.4895 5741.0
20.5564 6491.0
20.6232 8221.0
20.69 9501.0
20.7569 8700.0
20.8237 6782.0
20.8906 5470.0
20.9574 4985.0
21.0243 4688.0
21.0911 4894.0
21.158 5352.0
21.2248 6283.0
21.2917 7525.0
21.3585 9154.0
21.4253 10433.0
21.4922 10780.0
21.559 9235.0
21.6259 7263.0
21.6927 5625.0
21.7596 4699.0
21.8264 4073.0
21.8933 4038.0
21.9601 3783.0
22.0269 3678.0
22.0938 3794.0
22.1606 3603.0
22.2275 3580.0
22.2943 3568.0
22.3612 3691.0
22.428 3779.0
22.4949 3948.0
22.5617 4162.0
22.6286 4225.0
22.6954 4114.0
22.7622 3956.0
22.8291 3693.0
22.8959 3904.0
22.9628 3691.0
23.0296 3801.0
23.0965 4047.0
23.1633 4408.0
23.2302 4716.0
23.297 4673.0
23.3639 4240.0
23.4307 3997.0
23.4975 4114.0
23.5644 4222.0
23.6312 4249.0
23.6981 4592.0
23.7649 5211.0
23.8318 6109.0
23.8986 7431.0
23.9655 8921.0
24.0323 9481.0
24.0991 9445.0
24.166 8684.0
24.2328 7246.0
24.2997 6055.0
24.3665 5169.0
24.4334 4691.0
24.5002 4218.0
24.5671 4033.0
24.6339 3885.0
24.7008 3722.0
24.7676 3709.0
24.8344 3615.0
24.9013 3665.0
24.9681 3728.0
25.035 3718.0
25.1018 3654.0
25.1687 3826.0
25.2355 3883.0
25.3024 4087.0
25.3692 4331.0
25.436 4231.0
25.5029 4350.0
25.5697 4364.0
25.6366 4176.0
25.7034 4313.0
25.7703 4445.0
25.8371 4800.0
25.904 5515.0
25.9708 6164.0
26.0377 6736.0
26.1045 6452.0
26.1713 6204.0
26.2382 5883.0
26.305 5813.0
26.3719 6193.0
26.4387 6588.0
26.5056 6621.0
26.5724 6158.0
26.6393 5341.0
26.7061 4720.0
26.773 4322.0
26.8398 4096.0
26.9066 3955.0
26.9735 3937.0
27.0403 3995.0
27.1072 3855.0
27.174 3820.0
27.2409 3766.0
27.3077 3780.0
27.3746 3827.0
27.4414 3839.0
27.5082 3902.0
27.5751 3951.0
27.6419 4035.0
27.7088 4173.0
27.7756 4356.0
27.8425 4820.0
27.9093 5061.0
27.9762 5440.0
28.043 5662.0
28.1099 5895.0
28.1767 5780.0
28.2435 5760.0
28.3104 5185.0
28.3772 4952.0
28.4441 4442.0
28.5109 4223.0
28.5778 4154.0
28.6446 4088.0
28.7115 3968.0
28.7783 3745.0
28.8451 3688.0
28.912 3614.0
28.9788 3669.0
29.0457 3666.0
29.1125 3627.0
29.1794 3592.0
29.2462 3670.0
29.3131 3778.0
29.3799 3813.0
29.4468 4004.0
29.5136 4102.0
29.5804 4376.0
29.6473 4775.0
29.7141 4709.0
29.781 4578.0
29.8478 4604.0
29.9147 4529.0
29.9815 4870.0
30.0484 5269.0
30.1152 5743.0
30.182 5372.0
30.2489 5165.0
30.3157 4991.0
30.3826 4989.0
30.4494 5282.0
30.5163 5333.0
30.5831 5486.0
30.65 5747.0
30.7168 5951.0
30.7837 6076.0
30.8505 6019.0
30.9173 6253.0
30.9842 6358.0
31.051 6958.0
31.1179 7844.0
31.1847 8923.0
31.2516 9238.0
31.3184 8555.0
31.3853 7750.0
31.4521 6586.0
31.519 5837.0
31.5858 5175.0
31.6526 4937.0
31.7195 4574.0
31.7863 4663.0
31.8532 4716.0
31.92 4593.0
31.9869 4662.0
32.0537 4198.0
32.1206 4097.0
32.1874 4201.0
32.2542 4202.0
32.3211 4603.0
32.3879 4748.0
32.4548 5075.0
32.5216 4839.0
32.5885 4640.0
32.6553 4606.0
32.7222 4495.0
32.789 4434.0
32.8559 4373.0
32.9227 4496.0
32.9895 4693.0
33.0564 4616.0
33.1232 4387.0
33.1901 4064.0
33.2569 3850.0
33.3238 3687.0
33.3906 3385.0
33.4575 3088.0
33.5243 3084.0
33.5911 2947.0
33.658 2845.0
33.7248 2831.0
33.7917 2890.0
33.8585 2930.0
33.9254 2810.0
33.9922 2687.0
34.0591 2604.0
34.1259 2535.0
34.1928 2527.0
34.2596 2534.0
34.3264 2541.0
34.3933 2529.0
34.4601 2618.0
34.527 2665.0
34.5938 2663.0
34.6607 2478.0
34.7275 2486.0
34.7944 2336.0
34.8612 2245.0
34.928 2442.0
34.9949 2540.0
35.0617 2458.0
35.1286 2569.0
35.1954 2535.0
35.2623 2479.0
35.3291 2502.0
35.396 2607.0
35.4628 2730.0
35.5297 2814.0
35.5965 2858.0
35.6633 2626.0
35.7302 2446.0
35.797 2370.0
35.8639 2301.0
35.9307 2203.0
35.9976 2297.0
36.0644 2341.0
36.1313 2309.0
36.1981 2231.0
36.265 2350.0
36.3318 2143.0
36.3986 2212.0
36.4655 2335.0
36.5323 2240.0
36.5992 2137.0
36.666 2261.0
36.7329 2121.0
36.7997 2122.0
36.8666 1964.0
36.9334 2025.0
37.0002 1994.0
37.0671 1913.0
37.1339 1837.0
37.2008 1902.0
37.2676 1853.0
37.3345 1866.0
37.4013 1900.0
37.4682 1878.0
37.535 1853.0
37.6019 1863.0
37.6687 1860.0
37.7355 1857.0
37.8024 1716.0
37.8692 1834.0
37.9361 1769.0
38.0029 1850.0
38.0698 1750.0
38.1366 1782.0
38.2035 1700.0
38.2703 1822.0
38.3371 1691.0
38.404 1706.0
38.4708 1846.0
38.5377 1699.0
38.6045 1816.0
38.6714 1785.0
38.7382 1765.0
38.8051 1844.0
38.8719 1762.0
38.9388 1830.0
39.0056 1784.0
39.0724 1906.0
39.1393 2001.0
39.2061 1910.0
39.273 1850.0
39.3398 1885.0
39.4067 1899.0
39.4735 1901.0
39.5404 1978.0
39.6072 1925.0
39.6741 1802.0
39.7409 1750.0
39.8077 1771.0
39.8746 1734.0
39.9414 1715.0
40.0083 1737.0
40.0751 1722.0
40.142 1734.0
40.2088 1668.0
40.2757 1766.0
40.3425 1722.0
40.4093 1826.0
40.4762 1855.0
40.543 1691.0
40.6099 1722.0
40.6767 1698.0
40.7436 1715.0
40.8104 1720.0
40.8773 1686.0
40.9441 1772.0
41.011 1750.0
41.0778 1802.0
41.1446 1854.0
41.2115 1889.0
41.2783 1824.0
41.3452 1848.0
41.412 1815.0
41.4789 1864.0
41.5457 1774.0
41.6126 1883.0
41.6794 1886.0
41.7462 1919.0
41.8131 1918.0
41.8799 1852.0
41.9468 1857.0
42.0136 1863.0
42.0805 1819.0
42.1473 1768.0
42.2142 1828.0
42.281 1687.0
42.3479 1699.0
42.4147 1781.0
42.4815 1783.0
42.5484 1710.0
42.6152 1632.0
42.6821 1767.0
42.7489 1747.0
42.8158 1754.0
42.8826 1805.0
42.9495 1738.0
43.0163 1806.0
43.0831 1717.0
43.15 1791.0
43.2168 1941.0
43.2837 1951.0
43.3505 1935.0
43.4174 1922.0
43.4842 1937.0
43.5511 1993.0
43.6179 1945.0
43.6848 1900.0
43.7516 1826.0
43.8184 1848.0
43.8853 1830.0
43.9521 1761.0
44.019 1719.0
44.0858 1771.0
44.1527 1784.0
44.2195 1709.0
44.2864 1656.0
44.3532 1614.0
44.4201 1717.0
44.4869 1648.0
44.5537 1645.0
44.6206 1679.0
44.6874 1661.0
44.7543 1735.0
44.8211 1746.0
44.888 1722.0
44.9548 1710.0
45.0217 1696.0
45.0885 1696.0
45.1553 1716.0
45.2222 1680.0
45.289 1699.0
45.3559 1768.0
45.4227 1705.0
45.4896 1674.0
45.5564 1713.0
45.6233 1694.0
45.6901 1599.0
45.757 1645.0
45.8238 1584.0
45.8906 1641.0
45.9575 1619.0
46.0243 1683.0
46.0912 1669.0
46.158 1693.0
46.2249 1637.0
46.2917 1605.0
46.3586 1582.0
46.4254 1665.0
46.4922 1537.0
46.5591 1706.0
46.6259 1652.0
46.6928 1628.0
46.7596 1612.0
46.8265 1659.0
46.8933 1677.0
46.9602 1629.0
47.027 1583.0
47.0939 1599.0
47.1607 1706.0
47.2275 1639.0
47.2944 1667.0
47.3612 1591.0
47.4281 1660.0
47.4949 1629.0
47.5618 1633.0
47.6286 1563.0
47.6955 1627.0
47.7623 1658.0
47.8291 1620.0
47.896 1605.0
47.9628 1602.0
48.0297 1617.0
48.0965 1490.0
48.1634 1604.0
48.2302 1568.0
48.2971 1607.0
48.3639 1666.0
48.4308 1562.0
48.4976 1623.0
48.5644 1545.0
48.6313 1651.0
48.6981 1588.0
48.765 1648.0
48.8318 1666.0
48.8987 1725.0
48.9655 1696.0
49.0324 1884.0
49.0992 1903.0
49.1661 1917.0
49.2329 1946.0
49.2997 2059.0
49.3666 2030.0
49.4334 2129.0
49.5003 1983.0
49.5671 1981.0
49.634 2026.0
49.7008 1919.0
49.7677 1897.0
49.8345 1992.0
49.9013 1893.0
49.9682 1924.0
50.035 1819.0
50.1019 1868.0
50.1687 1781.0
50.2356 1772.0
50.3024 1864.0
50.3693 1862.0
50.4361 1849.0
50.503 1955.0
50.5698 1900.0
50.6366 1897.0
50.7035 1906.0
50.7703 1868.0
50.8372 1887.0
50.904 1935.0
50.9709 1817.0
51.0377 1926.0
51.1046 1853.0
51.1714 1847.0
51.2382 1824.0
51.3051 1867.0
51.3719 1870.0
51.4388 1783.0
51.5056 1830.0
51.5725 1768.0
51.6393 1682.0
51.7062 1743.0
51.773 1772.0
51.8399 1692.0
51.9067 1759.0
51.9735 1758.0
52.0404 1723.0
52.1072 1634.0
52.1741 1627.0
52.2409 1631.0
52.3078 1619.0
52.3746 1694.0
52.4415 1601.0
52.5083 1634.0
52.5751 1709.0
52.642 1616.0
52.7088 1636.0
52.7757 1622.0
52.8425 1692.0
52.9094 1656.0
52.9762 1720.0
53.0431 1676.0
53.1099 1495.0
53.1768 1562.0
53.2436 1636.0
53.3104 1660.0
53.3773 1620.0
53.4441 1715.0
53.511 1658.0
53.5778 1726.0
53.6447 1642.0
53.7115 1690.0
53.7784 1619.0
53.8452 1614.0
53.9121 1514.0
53.9789 1604.0
54.0457 1541.0
54.1126 1606.0
54.1794 1603.0
54.2463 1542.0
54.3131 1493.0
54.38 1516.0
54.4468 1655.0
54.5137 1556.0
54.5805 1562.0
54.6473 1559.0
54.7142 1562.0
54.781 1490.0
54.8479 1604.0
54.9147 1542.0
54.9816 1538.0
55.0484 1590.0
55.1153 1618.0
55.1821 1516.0
55.249 1497.0
55.3158 1519.0
55.3826 1565.0
55.4495 1649.0
55.5163 1664.0
55.5832 1730.0
55.65 1670.0
55.7169 1680.0
55.7837 1749.0
55.8506 1714.0
55.9174 1721.0
55.9842 1816.0
56.0511 1769.0
56.1179 1759.0
56.1848 1789.0
56.2516 1770.0
56.3185 1731.0
56.3853 1788.0
56.4522 1595.0
56.519 1635.0
56.5859 1706.0
56.6527 1637.0
56.7195 1633.0
56.7864 1609.0
56.8532 1556.0
56.9201 1566.0
56.9869 1577.0
57.0538 1432.0
57.1206 1496.0
57.1875 1490.0
57.2543 1438.0
57.3212 1494.0
57.388 1454.0
57.4548 1394.0
57.5217 1398.0
57.5885 1414.0
57.6554 1414.0
57.7222 1408.0
57.7891 1355.0
57.8559 1365.0
57.9228 1443.0
57.9896 1391.0
58.0564 1413.0
58.1233 1390.0
58.1901 1426.0
58.257 1380.0
58.3238 1400.0
58.3907 1443.0
58.4575 1416.0
58.5244 1381.0
58.5912 1433.0
58.6581 1363.0
58.7249 1427.0
58.7917 1393.0
58.8586 1388.0
58.9254 1371.0
58.9923 1421.0
59.0591 1421.0
59.126 1421.0
59.1928 1490.0
59.2597 1453.0
59.3265 1451.0
59.3933 1457.0
59.4602 1459.0
59.527 1495.0
59.5939 1565.0
59.6607 1526.0
59.7276 1505.0
59.7944 1552.0
59.8613 1565.0
59.9281 1541.0
59.995 1544.0
60.0618 1500.0
60.1286 1441.0
60.1955 1510.0
60.2623 1503.0
60.3292 1453.0
60.396 1410.0
60.4629 1465.0
60.5297 1422.0
60.5966 1462.0
60.6634 1463.0
60.7302 1437.0
60.7971 1460.0
60.8639 1461.0
60.9308 1433.0
60.9976 1387.0
61.0645 1380.0
61.1313 1435.0
61.1982 1366.0
61.265 1422.0
61.3319 1539.0
61.3987 1405.0
61.4655 1429.0
61.5324 1377.0
61.5992 1425.0
61.6661 1476.0
61.7329 1456.0
61.7998 1376.0
61.8666 1379.0
61.9335 1408.0
62.0003 1413.0
62.0672 1372.0
62.134 1325.0
62.2008 1347.0
62.2677 1296.0
62.3345 1350.0
62.4014 1337.0
62.4682 1321.0
62.5351 1390.0
62.6019 1309.0
62.6688 1403.0
62.7356 1412.0
62.8024 1347.0
62.8693 1343.0
62.9361 1357.0
63.003 1295.0
63.0698 1317.0
63.1367 1364.0
63.2035 1411.0
63.2704 1374.0
63.3372 1397.0
63.4041 1276.0
63.4709 1351.0
63.5377 1459.0
63.6046 1412.0
63.6714 1386.0
63.7383 1408.0
63.8051 1365.0
63.872 1427.0
63.9388 1457.0
64.0057 1412.0
64.0725 1382.0
64.1393 1436.0
64.2062 1355.0
64.273 1406.0
64.3399 1427.0
64.4067 1435.0
64.4736 1409.0
64.5404 1303.0
64.6073 1338.0
64.6741 1393.0
64.741 1410.0
64.8078 1354.0
64.8746 1394.0
64.9415 1333.0
65.0083 1326.0
65.0752 1326.0
65.142 1316.0
65.2089 1394.0
65.2757 1332.0
65.3426 1431.0
65.4094 1395.0
65.4762 1398.0
65.5431 1313.0
65.6099 1303.0
65.6768 1379.0
65.7436 1332.0
65.8105 1297.0
65.8773 1354.0
65.9442 1332.0
66.011 1321.0
66.0779 1296.0
66.1447 1347.0
66.2115 1378.0
66.2784 1297.0
66.3452 1363.0
66.4121 1375.0
66.4789 1254.0
66.5458 1335.0
66.6126 1283.0
66.6795 1402.0
66.7463 1377.0
66.8132 1315.0
66.88 1442.0
66.9468 1332.0
67.0137 1417.0
67.0805 1412.0
67.1474 1425.0
67.2142 1439.0
67.2811 1473.0
67.3479 1410.0
67.4148 1404.0
67.4816 1376.0
67.5484 1420.0
67.6153 1417.0
67.6821 1361.0
67.749 1349.0
67.8158 1302.0
67.8827 1327.0
67.9495 1356.0
68.0164 1416.0
68.0832 1373.0
68.1501 1266.0
68.2169 1315.0
68.2837 1299.0
68.3506 1285.0
68.4174 1274.0
68.4843 1230.0
68.5511 1270.0
68.618 1254.0
68.6848 1269.0
68.7517 1244.0
68.8185 1258.0
68.8853 1253.0
68.9522 1268.0
69.019 1272.0
69.0859 1296.0
69.1527 1246.0
69.2196 1281.0
69.2864 1231.0
69.3533 1264.0
69.4201 1312.0
69.487 1312.0
69.5538 1294.0
69.6206 1254.0
69.6875 1260.0
69.7543 1290.0
69.8212 1230.0
69.888 1279.0
69.9549 1294.0
70.0217 1251.0
70.0886 1240.0
70.1554 1249.0
70.2222 1333.0
70.2891 1332.0
70.3559 1373.0
70.4228 1432.0
70.4896 1397.0
70.5565 1370.0
70.6233 1363.0
70.6902 1399.0
70.757 1296.0
70.8239 1327.0
70.8907 1327.0
70.9575 1348.0
71.0244 1332.0
71.0912 1283.0
71.1581 1272.0
71.2249 1240.0
71.2918 1322.0
71.3586 1247.0
71.4255 1228.0
71.4923 1182.0
71.5592 1290.0
71.626 1281.0
71.6928 1299.0
71.7597 1191.0
71.8265 1203.0
71.8934 1220.0
71.9602 1252.0
72.0271 1264.0
72.0939 1215.0
72.1608 1213.0
72.2276 1252.0
72.2944 1276.0
72.3613 1196.0
72.4281 1169.0
72.495 1181.0
72.5618 1225.0
72.6287 1165.0
72.6955 1207.0
72.7624 1217.0
72.8292 1241.0
72.8961 1220.0
72.9629 1246.0
73.0297 1235.0
73.0966 1228.0
73.1634 1241.0
73.2303 1253.0
73.2971 1233.0
73.364 1184.0
73.4308 1202.0
73.4977 1185.0
73.5645 1208.0
73.6313 1115.0
73.6982 1184.0
73.765 1133.0
73.8319 1225.0
73.8987 1163.0
73.9656 1204.0
74.0324 1145.0
74.0993 1118.0
74.1661 1218.0
74.233 1171.0
74.2998 1132.0
74.3666 1158.0
74.4335 1136.0
74.5003 1168.0
74.5672 1147.0
74.634 1204.0
74.7009 1151.0
74.7677 1101.0
74.8346 1133.0
74.9014 1169.0
74.9683 1114.0
75.0351 1125.0
75.1019 1128.0
75.1688 1131.0
75.2356 1158.0
75.3025 1088.0
75.3693 1107.0
75.4362 1104.0
75.503 1174.0
75.5699 1126.0
75.6367 1164.0
75.7035 1139.0
75.7704 1166.0
75.8372 1125.0
75.9041 1167.0
75.9709 1123.0
76.0378 1135.0
76.1046 1115.0
76.1715 1091.0
76.2383 1114.0
76.3052 1081.0
76.372 1091.0
76.4388 1131.0
76.5057 1071.0
76.5725 1132.0
76.6394 1074.0
76.7062 1140.0
76.7731 1086.0
76.8399 1087.0
76.9068 1085.0
76.9736 1070.0
77.0404 1036.0
77.1073 1048.0
77.1741 1033.0
77.241 1081.0
77.3078 1048.0
77.3747 1022.0
77.4415 1042.0
77.5084 1000.0
77.5752 1136.0
77.6421 1028.0
77.7089 1036.0
77.7757 1099.0
77.8426 1057.0
77.9094 1063.0
77.9763 981.0
78.0431 1004.0
78.11 1036.0
78.1768 984.0
78.2437 984.0
78.3105 1088.0
78.3773 1031.0
78.4442 989.0
78.511 941.0
78.5779 1031.0
78.6447 1021.0
78.7116 982.0
78.7784 999.0
78.8453 1014.0
78.9121 1062.0
78.979 1024.0
79.0458 1016.0
79.1126 1016.0
79.1795 1060.0
79.2463 975.0
79.3132 1007.0
79.38 1023.0
79.4469 1011.0
79.5137 1016.0
79.5806 966.0
79.6474 1014.0
79.7143 1002.0
79.7811 953.0
79.8479 925.0
79.9148 1022.0
79.9816 965.0
80.0485 898.0
80.1153 920.0
80.1822 923.0
80.249 873.0
80.3159 943.0
80.3827 908.0
80.4495 937.0
80.5164 984.0
80.5832 977.0
80.6501 949.0
80.7169 946.0
80.7838 905.0
80.8506 886.0
80.9175 869.0
80.9843 943.0
81.0512 950.0
81.118 933.0
81.1848 943.0
81.2517 885.0
81.3185 942.0
81.3854 891.0
81.4522 926.0
81.5191 895.0
81.5859 860.0
81.6528 857.0
81.7196 826.0
81.7864 885.0
81.8533 852.0
81.9201 865.0
81.987 848.0
82.0538 864.0
82.1207 894.0
82.1875 827.0
82.2544 846.0
82.3212 868.0
82.3881 845.0
82.4549 854.0
82.5217 869.0
82.5886 866.0
82.6554 823.0
82.7223 799.0
82.7891 828.0
82.856 878.0
82.9228 820.0
82.9897 806.0
83.0565 820.0
83.1233 819.0
83.1902 809.0
83.257 814.0
83.3239 822.0
83.3907 843.0
83.4576 770.0
83.5244 851.0
83.5913 839.0
83.6581 807.0
83.725 799.0
83.7918 871.0
83.8586 792.0
83.9255 763.0
83.9923 821.0
84.0592 751.0
84.126 776.0
84.1929 759.0
84.2597 809.0
84.3266 753.0
84.3934 706.0
84.4603 773.0
84.5271 701.0
84.5939 773.0
84.6608 708.0
84.7276 779.0
84.7945 728.0
84.8613 750.0
84.9282 729.0
84.995 802.0
85.0619 732.0
85.1287 784.0
85.1955 777.0
85.2624 743.0
85.3292 735.0
85.3961 738.0
85.4629 755.0
85.5298 793.0
85.5966 729.0
85.6635 731.0
85.7303 792.0
85.7972 730.0
85.864 678.0
85.9308 722.0
85.9977 735.0
86.0645 729.0
86.1314 771.0
86.1982 736.0
86.2651 677.0
86.3319 757.0
86.3988 740.0
86.4656 748.0
86.5324 742.0
86.5993 764.0
86.6661 716.0
86.733 741.0
86.7998 678.0
86.8667 713.0
86.9335 706.0
87.0004 685.0
87.0672 663.0
87.1341 723.0
87.2009 679.0
87.2677 714.0
87.3346 673.0
87.4014 680.0
87.4683 725.0
87.5351 727.0
87.602 682.0
87.6688 675.0
87.7357 750.0
87.8025 701.0
87.8693 726.0
87.9362 650.0
88.003 710.0
88.0699 687.0
88.1367 698.0
88.2036 650.0
88.2704 705.0
88.3373 679.0
88.4041 665.0
88.471 660.0
88.5378 743.0
88.6046 661.0
88.6715 641.0
88.7383 664.0
88.8052 614.0
88.872 661.0
88.9389 688.0
89.0057 715.0
89.0726 705.0
89.1394 645.0
89.2063 666.0
89.2731 658.0
89.3399 649.0
89.4068 687.0
89.4736 674.0
89.5405 686.0
89.6073 678.0
89.6742 654.0
89.741 634.0
89.8079 669.0
89.8747 615.0
89.9415 667.0
89.9583 702.0