File: code/XRD_Analysis/External Sources/Fabian/15022024_MCM-41.xy
4.98146 5780.0
5.0483 5161.0
5.11515 4703.0
5.18199 4175.0
5.24884 3711.0
5.31568 3380.0
5.38253 3084.0
5.44937 2959.0
5.51622 2868.0
5.58306 2630.0
5.64991 2595.0
5.71675 2603.0
5.7836 2543.0
5.85044 2489.0
5.91729 2425.0
5.98413 2389.0
6.05098 2436.0
6.11782 2343.0
6.18467 2531.0
6.25151 2556.0
6.31836 2567.0
6.3852 2671.0
6.45205 2608.0
6.51889 2402.0
6.58574 2400.0
6.65258 2255.0
6.71943 2238.0
6.78627 2094.0
6.85312 2119.0
6.91996 1937.0
6.98681 1940.0
7.05365 1834.0
7.1205 1816.0
7.18734 1773.0
7.25419 1779.0
7.32103 1723.0
7.38788 1746.0
7.45472 1741.0
7.52157 1681.0
7.58841 1569.0
7.65526 1606.0
7.7221 1558.0
7.78895 1476.0
7.85579 1522.0
7.92264 1508.0
7.98948 1508.0
8.05633 1431.0
8.12317 1418.0
8.19002 1454.0
8.25686 1393.0
8.32371 1360.0
8.39055 1367.0
8.4574 1356.0
8.52424 1285.0
8.59109 1347.0
8.65793 1288.0
8.72478 1304.0
8.79162 1245.0
8.85847 1219.0
8.92532 1248.0
8.99216 1169.0
9.05901 1169.0
9.12585 1208.0
9.1927 1220.0
9.25954 1121.0
9.32639 1138.0
9.39323 1133.0
9.46008 1189.0
9.52692 1119.0
9.59377 1163.0
9.66061 1125.0
9.72746 1157.0
9.7943 1075.0
9.86115 1048.0
9.92799 1069.0
9.99484 1055.0
10.0617 1022.0
10.1285 1038.0
10.1954 1019.0
10.2622 1035.0
10.3291 980.0
10.3959 1033.0
10.4628 1034.0
10.5296 1007.0
10.5964 988.0
10.6633 1031.0
10.7301 945.0
10.797 981.0
10.8638 1035.0
10.9307 957.0
10.9975 947.0
11.0644 907.0
11.1312 932.0
11.198 918.0
11.2649 953.0
11.3317 914.0
11.3986 899.0
11.4654 927.0
11.5323 873.0
11.5991 906.0
11.666 873.0
11.7328 906.0
11.7997 848.0
11.8665 829.0
11.9333 876.0
12.0002 863.0
12.067 848.0
12.1339 871.0
12.2007 817.0
12.2676 873.0
12.3344 833.0
12.4013 849.0
12.4681 854.0
12.5349 824.0
12.6018 834.0
12.6686 828.0
12.7355 883.0
12.8023 865.0
12.8692 864.0
12.936 770.0
13.0029 857.0
13.0697 849.0
13.1366 831.0
13.2034 825.0
13.2702 817.0
13.3371 838.0
13.4039 777.0
13.4708 826.0
13.5376 800.0
13.6045 750.0
13.6713 820.0
13.7382 790.0
13.805 791.0
13.8719 767.0
13.9387 873.0
14.0055 790.0
14.0724 802.0
14.1392 829.0
14.2061 775.0
14.2729 872.0
14.3398 837.0
14.4066 787.0
14.4735 833.0
14.5403 864.0
14.6071 857.0
14.674 840.0
14.7408 816.0
14.8077 835.0
14.8745 879.0
14.9414 857.0
15.0082 851.0
15.0751 847.0
15.1419 906.0
15.2088 836.0
15.2756 838.0
15.3424 809.0
15.4093 820.0
15.4761 884.0
15.543 898.0
15.6098 940.0
15.6767 860.0
15.7435 871.0
15.8104 913.0
15.8772 932.0
15.944 876.0
16.0109 907.0
16.0777 941.0
16.1446 909.0
16.2114 896.0
16.2783 946.0
16.3451 923.0
16.412 953.0
16.4788 891.0
16.5457 933.0
16.6125 919.0
16.6793 935.0
16.7462 969.0
16.813 1002.0
16.8799 1001.0
16.9467 975.0
17.0136 1048.0
17.0804 1040.0
17.1473 1039.0
17.2141 1017.0
17.2809 1004.0
17.3478 990.0
17.4146 1074.0
17.4815 951.0
17.5483 986.0
17.6152 1021.0
17.682 1045.0
17.7489 1027.0
17.8157 1081.0
17.8826 1111.0
17.9494 1070.0
18.0162 1056.0
18.0831 1110.0
18.1499 1095.0
18.2168 1073.0
18.2836 1096.0
18.3505 1082.0
18.4173 1006.0
18.4842 1126.0
18.551 1140.0
18.6179 1099.0
18.6847 1255.0
18.7515 1172.0
18.8184 1158.0
18.8852 1135.0
18.9521 1247.0
19.0189 1281.0
19.0858 1242.0
19.1526 1181.0
19.2195 1199.0
19.2863 1263.0
19.3531 1275.0
19.42 1269.0
19.4868 1299.0
19.5537 1238.0
19.6205 1324.0
19.6874 1353.0
19.7542 1331.0
19.8211 1343.0
19.8879 1326.0
19.9548 1306.0
20.0216 1346.0
20.0884 1387.0
20.1553 1391.0
20.2221 1412.0
20.289 1406.0
20.3558 1397.0
20.4227 1392.0
20.4895 1445.0
20.5564 1431.0
20.6232 1414.0
20.69 1396.0
20.7569 1465.0
20.8237 1453.0
20.8906 1489.0
20.9574 1427.0
21.0243 1471.0
21.0911 1414.0
21.158 1521.0
21.2248 1435.0
21.2917 1699.0
21.3585 1493.0
21.4253 1469.0
21.4922 1509.0
21.559 1479.0
21.6259 1510.0
21.6927 1578.0
21.7596 1534.0
21.8264 1618.0
21.8933 1563.0
21.9601 1518.0
22.0269 1615.0
22.0938 1576.0
22.1606 1553.0
22.2275 1560.0
22.2943 1534.0
22.3612 1446.0
22.428 1558.0
22.4949 1607.0
22.5617 1600.0
22.6286 1523.0
22.6954 1451.0
22.7622 1527.0
22.8291 1523.0
22.8959 1526.0
22.9628 1544.0
23.0296 1544.0
23.0965 1587.0
23.1633 1477.0
23.2302 1582.0
23.297 1501.0
23.3639 1529.0
23.4307 1563.0
23.4975 1456.0
23.5644 1550.0
23.6312 1531.0
23.6981 1492.0
23.7649 1431.0
23.8318 1499.0
23.8986 1494.0
23.9655 1466.0
24.0323 1549.0
24.0991 1490.0
24.166 1427.0
24.2328 1527.0
24.2997 1453.0
24.3665 1555.0
24.4334 1423.0
24.5002 1399.0
24.5671 1429.0
24.6339 1376.0
24.7008 1367.0
24.7676 1324.0
24.8344 1368.0
24.9013 1302.0
24.9681 1421.0
25.035 1410.0
25.1018 1406.0
25.1687 1362.0
25.2355 1346.0
25.3024 1385.0
25.3692 1309.0
25.436 1350.0
25.5029 1323.0
25.5697 1245.0
25.6366 1267.0
25.7034 1335.0
25.7703 1321.0
25.8371 1299.0
25.904 1223.0
25.9708 1278.0
26.0377 1211.0
26.1045 1225.0
26.1713 1212.0
26.2382 1216.0
26.305 1212.0
26.3719 1161.0
26.4387 1149.0
26.5056 1199.0
26.5724 1167.0
26.6393 1102.0
26.7061 1111.0
26.773 1127.0
26.8398 1114.0
26.9066 1113.0
26.9735 1125.0
27.0403 1106.0
27.1072 1072.0
27.174 1084.0
27.2409 1090.0
27.3077 1027.0
27.3746 1027.0
27.4414 1029.0
27.5082 1012.0
27.5751 1028.0
27.6419 1033.0
27.7088 1005.0
27.7756 951.0
27.8425 1021.0
27.9093 1042.0
27.9762 923.0
28.043 950.0
28.1099 940.0
28.1767 985.0
28.2435 927.0
28.3104 947.0
28.3772 992.0
28.4441 951.0
28.5109 945.0
28.5778 947.0
28.6446 892.0
28.7115 895.0
28.7783 867.0
28.8451 909.0
28.912 873.0
28.9788 800.0
29.0457 835.0
29.1125 838.0
29.1794 866.0
29.2462 803.0
29.3131 831.0
29.3799 863.0
29.4468 872.0
29.5136 851.0
29.5804 837.0
29.6473 845.0
29.7141 803.0
29.781 840.0
29.8478 839.0
29.9147 767.0
29.9815 808.0
30.0484 772.0
30.1152 759.0
30.182 745.0
30.2489 754.0
30.3157 742.0
30.3826 769.0
30.4494 770.0
30.5163 735.0
30.5831 773.0
30.65 691.0
30.7168 720.0
30.7837 744.0
30.8505 683.0
30.9173 715.0
30.9842 704.0
31.051 649.0
31.1179 662.0
31.1847 716.0
31.2516 706.0
31.3184 693.0
31.3853 643.0
31.4521 669.0
31.519 670.0
31.5858 634.0
31.6526 661.0
31.7195 637.0
31.7863 643.0
31.8532 628.0
31.92 662.0
31.9869 622.0
32.0537 665.0
32.1206 606.0
32.1874 629.0
32.2542 617.0
32.3211 632.0
32.3879 563.0
32.4548 594.0
32.5216 652.0
32.5885 601.0
32.6553 594.0
32.7222 581.0
32.789 605.0
32.8559 548.0
32.9227 589.0
32.9895 568.0
33.0564 561.0
33.1232 568.0
33.1901 555.0
33.2569 567.0
33.3238 607.0
33.3906 528.0
33.4575 564.0
33.5243 561.0
33.5911 520.0
33.658 519.0
33.7248 505.0
33.7917 589.0
33.8585 504.0
33.9254 516.0
33.9922 621.0
34.0591 517.0
34.1259 511.0
34.1928 522.0
34.2596 529.0
34.3264 492.0
34.3933 486.0
34.4601 524.0
34.527 478.0
34.5938 522.0
34.6607 500.0
34.7275 489.0
34.7944 526.0
34.8612 490.0
34.928 494.0
34.9949 453.0
35.0617 479.0
35.1286 475.0
35.1954 491.0
35.2623 447.0
35.3291 453.0
35.396 451.0
35.4628 472.0
35.5297 485.0
35.5965 467.0
35.6633 436.0
35.7302 422.0
35.797 510.0
35.8639 477.0
35.9307 464.0
35.9976 444.0
36.0644 423.0
36.1313 432.0
36.1981 477.0
36.265 419.0
36.3318 404.0
36.3986 429.0
36.4655 409.0
36.5323 453.0
36.5992 431.0
36.666 407.0
36.7329 401.0
36.7997 387.0
36.8666 399.0
36.9334 440.0
37.0002 387.0
37.0671 368.0
37.1339 387.0
37.2008 394.0
37.2676 396.0
37.3345 413.0
37.4013 387.0
37.4682 377.0
37.535 394.0
37.6019 378.0
37.6687 366.0
37.7355 387.0
37.8024 351.0
37.8692 388.0
37.9361 350.0
38.0029 358.0
38.0698 351.0
38.1366 419.0
38.2035 391.0
38.2703 381.0
38.3371 370.0
38.404 351.0
38.4708 382.0
38.5377 341.0
38.6045 362.0
38.6714 386.0
38.7382 355.0
38.8051 364.0
38.8719 367.0
38.9388 346.0
39.0056 349.0
39.0724 352.0
39.1393 375.0
39.2061 338.0
39.273 338.0
39.3398 365.0
39.4067 368.0
39.4735 354.0
39.5404 340.0
39.6072 358.0
39.6741 345.0
39.7409 321.0
39.8077 365.0
39.8746 335.0
39.9414 350.0
40.0083 338.0
40.0751 330.0
40.142 338.0
40.2088 346.0
40.2757 391.0
40.3425 334.0
40.4093 344.0
40.4762 357.0
40.543 346.0
40.6099 323.0
40.6767 335.0
40.7436 367.0
40.8104 373.0
40.8773 363.0
40.9441 364.0
41.011 391.0
41.0778 384.0
41.1446 348.0
41.2115 355.0
41.2783 303.0
41.3452 353.0
41.412 381.0
41.4789 341.0
41.5457 350.0
41.6126 364.0
41.6794 385.0
41.7462 336.0
41.8131 346.0
41.8799 350.0
41.9468 341.0
42.0136 367.0
42.0805 369.0
42.1473 345.0
42.2142 318.0
42.281 306.0
42.3479 334.0
42.4147 345.0
42.4815 375.0
42.5484 352.0
42.6152 338.0
42.6821 375.0
42.7489 358.0
42.8158 341.0
42.8826 366.0
42.9495 342.0
43.0163 315.0
43.0831 332.0
43.15 345.0
43.2168 365.0
43.2837 338.0
43.3505 328.0
43.4174 338.0
43.4842 377.0
43.5511 295.0
43.6179 333.0
43.6848 328.0
43.7516 348.0
43.8184 342.0
43.8853 329.0
43.9521 354.0
44.019 335.0
44.0858 321.0
44.1527 345.0
44.2195 344.0
44.2864 366.0
44.3532 370.0
44.4201 317.0
44.4869 346.0
44.5537 348.0
44.6206 320.0
44.6874 332.0
44.7543 336.0
44.8211 336.0
44.888 347.0
44.9548 338.0
45.0217 361.0
45.0885 318.0
45.1553 300.0
45.2222 304.0
45.289 366.0
45.3559 339.0
45.4227 317.0
45.4896 321.0
45.5564 353.0
45.6233 337.0
45.6901 362.0
45.757 303.0
45.8238 333.0
45.8906 368.0
45.9575 325.0
46.0243 302.0
46.0912 357.0
46.158 336.0
46.2249 329.0
46.2917 310.0
46.3586 309.0
46.4254 316.0
46.4922 308.0
46.5591 311.0
46.6259 303.0
46.6928 330.0
46.7596 291.0
46.8265 292.0
46.8933 340.0
46.9602 304.0
47.027 298.0
47.0939 328.0
47.1607 321.0
47.2275 328.0
47.2944 335.0
47.3612 328.0
47.4281 333.0
47.4949 300.0
47.5618 340.0
47.6286 318.0
47.6955 299.0
47.7623 341.0
47.8291 282.0
47.896 334.0
47.9628 340.0
48.0297 285.0
48.0965 334.0
48.1634 322.0
48.2302 295.0
48.2971 356.0
48.3639 309.0
48.4308 305.0
48.4976 328.0
48.5644 329.0
48.6313 320.0
48.6981 335.0
48.765 303.0
48.8318 260.0
48.8987 317.0
48.9655 310.0
49.0324 299.0
49.0992 321.0
49.1661 301.0
49.2329 333.0
49.2997 293.0
49.3666 330.0
49.4334 301.0
49.5003 291.0
49.5671 316.0
49.634 273.0
49.7008 317.0
49.7677 304.0
49.8345 286.0
49.9013 333.0
49.9682 330.0
50.035 351.0
50.1019 310.0
50.1687 291.0
50.2356 278.0
50.3024 297.0
50.3693 304.0
50.4361 309.0
50.503 286.0
50.5698 293.0
50.6366 279.0
50.7035 272.0
50.7703 263.0
50.8372 314.0
50.904 299.0
50.9709 330.0
51.0377 298.0
51.1046 313.0
51.1714 284.0
51.2382 270.0
51.3051 285.0
51.3719 303.0
51.4388 298.0
51.5056 317.0
51.5725 292.0
51.6393 293.0
51.7062 279.0
51.773 293.0
51.8399 274.0
51.9067 313.0
51.9735 320.0
52.0404 301.0
52.1072 277.0
52.1741 282.0
52.2409 334.0
52.3078 260.0
52.3746 295.0
52.4415 260.0
52.5083 290.0
52.5751 304.0
52.642 287.0
52.7088 264.0
52.7757 286.0
52.8425 305.0
52.9094 289.0
52.9762 305.0
53.0431 291.0
53.1099 268.0
53.1768 267.0
53.2436 277.0
53.3104 270.0
53.3773 287.0
53.4441 290.0
53.511 330.0
53.5778 267.0
53.6447 273.0
53.7115 313.0
53.7784 280.0
53.8452 270.0
53.9121 285.0
53.9789 287.0
54.0457 330.0
54.1126 293.0
54.1794 278.0
54.2463 268.0
54.3131 266.0
54.38 335.0
54.4468 273.0
54.5137 279.0
54.5805 272.0
54.6473 293.0
54.7142 285.0
54.781 267.0
54.8479 276.0
54.9147 269.0
54.9816 282.0
55.0484 271.0
55.1153 293.0
55.1821 286.0
55.249 255.0
55.3158 289.0
55.3826 272.0
55.4495 267.0
55.5163 285.0
55.5832 288.0
55.65 248.0
55.7169 254.0
55.7837 271.0
55.8506 275.0
55.9174 271.0
55.9842 270.0
56.0511 278.0
56.1179 271.0
56.1848 307.0
56.2516 280.0
56.3185 283.0
56.3853 288.0
56.4522 314.0
56.519 300.0
56.5859 284.0
56.6527 270.0
56.7195 257.0
56.7864 313.0
56.8532 297.0
56.9201 277.0
56.9869 257.0
57.0538 264.0
57.1206 284.0
57.1875 291.0
57.2543 258.0
57.3212 289.0
57.388 269.0
57.4548 297.0
57.5217 298.0
57.5885 291.0
57.6554 275.0
57.7222 330.0
57.7891 267.0
57.8559 274.0
57.9228 300.0
57.9896 271.0
58.0564 280.0
58.1233 278.0
58.1901 298.0
58.257 277.0
58.3238 313.0
58.3907 248.0
58.4575 263.0
58.5244 288.0
58.5912 286.0
58.6581 279.0
58.7249 247.0
58.7917 285.0
58.8586 247.0
58.9254 270.0
58.9923 316.0
59.0591 323.0
59.126 255.0
59.1928 321.0
59.2597 257.0
59.3265 275.0
59.3933 264.0
59.4602 244.0
59.527 288.0
59.5939 297.0
59.6607 271.0
59.7276 277.0
59.7944 280.0
59.8613 287.0
59.9281 273.0
59.995 284.0
60.0618 297.0
60.1286 267.0
60.1955 256.0
60.2623 307.0
60.3292 300.0
60.396 305.0
60.4629 294.0
60.5297 242.0
60.5966 315.0
60.6634 277.0
60.7302 262.0
60.7971 283.0
60.8639 295.0
60.9308 262.0
60.9976 274.0
61.0645 294.0
61.1313 283.0
61.1982 317.0
61.265 272.0
61.3319 285.0
61.3987 257.0
61.4655 272.0
61.5324 317.0
61.5992 286.0
61.6661 232.0
61.7329 300.0
61.7998 273.0
61.8666 313.0
61.9335 239.0
62.0003 280.0
62.0672 290.0
62.134 270.0
62.2008 275.0
62.2677 275.0
62.3345 269.0
62.4014 242.0
62.4682 267.0
62.5351 294.0
62.6019 279.0
62.6688 290.0
62.7356 257.0
62.8024 272.0
62.8693 251.0
62.9361 290.0
63.003 255.0
63.0698 306.0
63.1367 287.0
63.2035 314.0
63.2704 297.0
63.3372 339.0
63.4041 303.0
63.4709 298.0
63.5377 294.0
63.6046 305.0
63.6714 294.0
63.7383 297.0
63.8051 294.0
63.872 297.0
63.9388 288.0
64.0057 271.0
64.0725 285.0
64.1393 238.0
64.2062 274.0
64.273 298.0
64.3399 273.0
64.4067 285.0
64.4736 262.0
64.5404 271.0
64.6073 301.0
64.6741 285.0
64.741 289.0
64.8078 271.0
64.8746 277.0
64.9415 264.0
65.0083 297.0
65.0752 289.0
65.142 293.0
65.2089 298.0
65.2757 318.0
65.3426 316.0
65.4094 267.0
65.4762 303.0
65.5431 320.0
65.6099 301.0
65.6768 276.0
65.7436 282.0
65.8105 280.0
65.8773 311.0
65.9442 283.0
66.011 288.0
66.0779 334.0
66.1447 246.0
66.2115 297.0
66.2784 262.0
66.3452 314.0
66.4121 292.0
66.4789 307.0
66.5458 271.0
66.6126 302.0
66.6795 280.0
66.7463 285.0
66.8132 277.0
66.88 248.0
66.9468 250.0
67.0137 263.0
67.0805 293.0
67.1474 267.0
67.2142 303.0
67.2811 273.0
67.3479 277.0
67.4148 269.0
67.4816 256.0
67.5484 287.0
67.6153 274.0
67.6821 273.0
67.749 284.0
67.8158 276.0
67.8827 254.0
67.9495 257.0
68.0164 280.0
68.0832 292.0
68.1501 295.0
68.2169 257.0
68.2837 287.0
68.3506 301.0
68.4174 254.0
68.4843 302.0
68.5511 276.0
68.618 292.0
68.6848 256.0
68.7517 317.0
68.8185 277.0
68.8853 255.0
68.9522 279.0
69.019 269.0
69.0859 298.0
69.1527 283.0
69.2196 257.0
69.2864 261.0
69.3533 280.0
69.4201 276.0
69.487 300.0
69.5538 283.0
69.6206 277.0
69.6875 301.0
69.7543 270.0
69.8212 252.0
69.888 269.0
69.9549 308.0
70.0217 255.0
70.0886 259.0
70.1554 294.0
70.2222 291.0
70.2891 273.0
70.3559 286.0
70.4228 242.0
70.4896 279.0
70.5565 273.0
70.6233 295.0
70.6902 248.0
70.757 285.0
70.8239 286.0
70.8907 320.0
70.9575 260.0
71.0244 269.0
71.0912 305.0
71.1581 286.0
71.2249 246.0
71.2918 275.0
71.3586 302.0
71.4255 280.0
71.4923 242.0
71.5592 243.0
71.626 278.0
71.6928 277.0
71.7597 283.0
71.8265 237.0
71.8934 287.0
71.9602 256.0
72.0271 285.0
72.0939 300.0
72.1608 242.0
72.2276 280.0
72.2944 258.0
72.3613 240.0
72.4281 235.0
72.495 280.0
72.5618 280.0
72.6287 302.0
72.6955 262.0
72.7624 239.0
72.8292 261.0
72.8961 272.0
72.9629 255.0
73.0297 273.0
73.0966 214.0
73.1634 246.0
73.2303 289.0
73.2971 261.0
73.364 262.0
73.4308 289.0
73.4977 286.0
73.5645 259.0
73.6313 248.0
73.6982 251.0
73.765 238.0
73.8319 260.0
73.8987 233.0
73.9656 275.0
74.0324 294.0
74.0993 252.0
74.1661 262.0
74.233 227.0
74.2998 274.0
74.3666 246.0
74.4335 269.0
74.5003 214.0
74.5672 250.0
74.634 268.0
74.7009 255.0
74.7677 280.0
74.8346 258.0
74.9014 270.0
74.9683 263.0
75.0351 224.0
75.1019 279.0
75.1688 289.0
75.2356 252.0
75.3025 254.0
75.3693 238.0
75.4362 229.0
75.503 262.0
75.5699 262.0
75.6367 258.0
75.7035 225.0
75.7704 241.0
75.8372 250.0
75.9041 250.0
75.9709 254.0
76.0378 238.0
76.1046 240.0
76.1715 228.0
76.2383 256.0
76.3052 248.0
76.372 256.0
76.4388 256.0
76.5057 217.0
76.5725 255.0
76.6394 254.0
76.7062 255.0
76.7731 222.0
76.8399 230.0
76.9068 242.0
76.9736 227.0
77.0404 271.0
77.1073 255.0
77.1741 277.0
77.241 254.0
77.3078 215.0
77.3747 303.0
77.4415 240.0
77.5084 235.0
77.5752 246.0
77.6421 244.0
77.7089 221.0
77.7757 248.0
77.8426 232.0
77.9094 271.0
77.9763 245.0
78.0431 236.0
78.11 239.0
78.1768 209.0
78.2437 217.0
78.3105 238.0
78.3773 261.0
78.4442 219.0
78.511 190.0
78.5779 227.0
78.6447 238.0
78.7116 207.0
78.7784 244.0
78.8453 225.0
78.9121 256.0
78.979 244.0
79.0458 216.0
79.1126 242.0
79.1795 230.0
79.2463 201.0
79.3132 228.0
79.38 226.0
79.4469 210.0
79.5137 232.0
79.5806 242.0
79.6474 245.0
79.7143 228.0
79.7811 227.0
79.8479 231.0
79.9148 225.0
79.9816 236.0
80.0485 208.0
80.1153 200.0
80.1822 206.0
80.249 223.0
80.3159 217.0
80.3827 221.0
80.4495 200.0
80.5164 201.0
80.5832 216.0
80.6501 245.0
80.7169 221.0
80.7838 231.0
80.8506 186.0
80.9175 208.0
80.9843 189.0
81.0512 229.0
81.118 205.0
81.1848 207.0
81.2517 190.0
81.3185 200.0
81.3854 197.0
81.4522 211.0
81.5191 181.0
81.5859 198.0
81.6528 194.0
81.7196 227.0
81.7864 224.0
81.8533 206.0
81.9201 192.0
81.987 193.0
82.0538 210.0
82.1207 201.0
82.1875 198.0
82.2544 181.0
82.3212 185.0
82.3881 170.0
82.4549 173.0
82.5217 199.0
82.5886 212.0
82.6554 194.0
82.7223 217.0
82.7891 160.0
82.856 180.0
82.9228 207.0
82.9897 190.0
83.0565 189.0
83.1233 188.0
83.1902 182.0
83.257 180.0
83.3239 203.0
83.3907 178.0
83.4576 181.0
83.5244 168.0
83.5913 195.0
83.6581 180.0
83.725 162.0
83.7918 184.0
83.8586 198.0
83.9255 168.0
83.9923 172.0
84.0592 203.0
84.126 168.0
84.1929 184.0
84.2597 174.0
84.3266 162.0
84.3934 166.0
84.4603 165.0
84.5271 159.0
84.5939 176.0
84.6608 153.0
84.7276 182.0
84.7945 168.0
84.8613 138.0
84.9282 191.0
84.995 150.0
85.0619 134.0
85.1287 159.0
85.1955 164.0
85.2624 151.0
85.3292 165.0
85.3961 160.0
85.4629 191.0
85.5298 168.0
85.5966 191.0
85.6635 164.0
85.7303 144.0
85.7972 167.0
85.864 154.0
85.9308 157.0
85.9977 170.0
86.0645 137.0
86.1314 155.0
86.1982 144.0
86.2651 161.0
86.3319 151.0
86.3988 164.0
86.4656 157.0
86.5324 154.0
86.5993 166.0
86.6661 149.0
86.733 176.0
86.7998 154.0
86.8667 150.0
86.9335 161.0
87.0004 168.0
87.0672 152.0
87.1341 161.0
87.2009 146.0
87.2677 153.0
87.3346 146.0
87.4014 162.0
87.4683 153.0
87.5351 120.0
87.602 139.0
87.6688 130.0
87.7357 159.0
87.8025 159.0
87.8693 143.0
87.9362 131.0
88.003 143.0
88.0699 131.0
88.1367 147.0
88.2036 161.0
88.2704 143.0
88.3373 143.0
88.4041 143.0
88.471 120.0
88.5378 150.0
88.6046 111.0
88.6715 147.0
88.7383 136.0
88.8052 131.0
88.872 137.0
88.9389 131.0
89.0057 133.0
89.0726 118.0
89.1394 172.0
89.2063 133.0
89.2731 99.0
89.3399 132.0
89.4068 146.0
89.4736 149.0
89.5405 126.0
89.6073 129.0
89.6742 113.0
89.741 131.0
89.8079 134.0
89.8747 130.0
89.9415 125.0