File: code/XRD_Analysis/External Sources/Fabian/15022024_ZnZrOx_Syn2.xy
4.98146 996.0
5.0483 996.0
5.11515 947.0
5.18199 964.0
5.24884 940.0
5.31568 898.0
5.38253 896.0
5.44937 920.0
5.51622 826.0
5.58306 856.0
5.64991 854.0
5.71675 881.0
5.7836 841.0
5.85044 804.0
5.91729 787.0
5.98413 786.0
6.05098 802.0
6.11782 850.0
6.18467 793.0
6.25151 762.0
6.31836 760.0
6.3852 786.0
6.45205 751.0
6.51889 704.0
6.58574 711.0
6.65258 721.0
6.71943 677.0
6.78627 689.0
6.85312 679.0
6.91996 674.0
6.98681 646.0
7.05365 665.0
7.1205 676.0
7.18734 681.0
7.25419 668.0
7.32103 590.0
7.38788 628.0
7.45472 684.0
7.52157 616.0
7.58841 615.0
7.65526 560.0
7.7221 550.0
7.78895 584.0
7.85579 599.0
7.92264 568.0
7.98948 567.0
8.05633 583.0
8.12317 616.0
8.19002 574.0
8.25686 557.0
8.32371 553.0
8.39055 548.0
8.4574 535.0
8.52424 556.0
8.59109 526.0
8.65793 540.0
8.72478 558.0
8.79162 524.0
8.85847 523.0
8.92532 536.0
8.99216 492.0
9.05901 498.0
9.12585 510.0
9.1927 516.0
9.25954 494.0
9.32639 525.0
9.39323 490.0
9.46008 477.0
9.52692 479.0
9.59377 472.0
9.66061 420.0
9.72746 481.0
9.7943 475.0
9.86115 476.0
9.92799 475.0
9.99484 424.0
10.0617 464.0
10.1285 457.0
10.1954 392.0
10.2622 447.0
10.3291 427.0
10.3959 423.0
10.4628 477.0
10.5296 406.0
10.5964 403.0
10.6633 397.0
10.7301 399.0
10.797 393.0
10.8638 392.0
10.9307 400.0
10.9975 404.0
11.0644 383.0
11.1312 389.0
11.198 391.0
11.2649 383.0
11.3317 369.0
11.3986 380.0
11.4654 364.0
11.5323 369.0
11.5991 382.0
11.666 357.0
11.7328 346.0
11.7997 351.0
11.8665 370.0
11.9333 375.0
12.0002 341.0
12.067 355.0
12.1339 328.0
12.2007 342.0
12.2676 333.0
12.3344 319.0
12.4013 355.0
12.4681 322.0
12.5349 324.0
12.6018 330.0
12.6686 299.0
12.7355 310.0
12.8023 311.0
12.8692 317.0
12.936 300.0
13.0029 342.0
13.0697 306.0
13.1366 360.0
13.2034 300.0
13.2702 322.0
13.3371 276.0
13.4039 293.0
13.4708 317.0
13.5376 306.0
13.6045 307.0
13.6713 310.0
13.7382 294.0
13.805 292.0
13.8719 309.0
13.9387 301.0
14.0055 304.0
14.0724 279.0
14.1392 270.0
14.2061 251.0
14.2729 306.0
14.3398 287.0
14.4066 295.0
14.4735 273.0
14.5403 298.0
14.6071 295.0
14.674 250.0
14.7408 268.0
14.8077 254.0
14.8745 280.0
14.9414 278.0
15.0082 256.0
15.0751 277.0
15.1419 266.0
15.2088 256.0
15.2756 268.0
15.3424 252.0
15.4093 256.0
15.4761 280.0
15.543 267.0
15.6098 240.0
15.6767 223.0
15.7435 238.0
15.8104 241.0
15.8772 266.0
15.944 232.0
16.0109 209.0
16.0777 223.0
16.1446 228.0
16.2114 244.0
16.2783 250.0
16.3451 209.0
16.412 248.0
16.4788 245.0
16.5457 254.0
16.6125 209.0
16.6793 224.0
16.7462 225.0
16.813 260.0
16.8799 250.0
16.9467 245.0
17.0136 241.0
17.0804 232.0
17.1473 232.0
17.2141 241.0
17.2809 254.0
17.3478 207.0
17.4146 209.0
17.4815 204.0
17.5483 232.0
17.6152 196.0
17.682 217.0
17.7489 213.0
17.8157 206.0
17.8826 243.0
17.9494 224.0
18.0162 217.0
18.0831 226.0
18.1499 215.0
18.2168 219.0
18.2836 195.0
18.3505 228.0
18.4173 211.0
18.4842 206.0
18.551 184.0
18.6179 212.0
18.6847 212.0
18.7515 175.0
18.8184 200.0
18.8852 203.0
18.9521 216.0
19.0189 201.0
19.0858 189.0
19.1526 185.0
19.2195 212.0
19.2863 203.0
19.3531 222.0
19.42 214.0
19.4868 206.0
19.5537 191.0
19.6205 204.0
19.6874 170.0
19.7542 203.0
19.8211 189.0
19.8879 205.0
19.9548 223.0
20.0216 189.0
20.0884 210.0
20.1553 186.0
20.2221 195.0
20.289 177.0
20.3558 196.0
20.4227 201.0
20.4895 189.0
20.5564 220.0
20.6232 225.0
20.69 230.0
20.7569 212.0
20.8237 232.0
20.8906 223.0
20.9574 210.0
21.0243 173.0
21.0911 189.0
21.158 212.0
21.2248 217.0
21.2917 198.0
21.3585 166.0
21.4253 194.0
21.4922 200.0
21.559 230.0
21.6259 195.0
21.6927 236.0
21.7596 189.0
21.8264 233.0
21.8933 220.0
21.9601 203.0
22.0269 215.0
22.0938 217.0
22.1606 206.0
22.2275 212.0
22.2943 193.0
22.3612 208.0
22.428 205.0
22.4949 206.0
22.5617 214.0
22.6286 217.0
22.6954 221.0
22.7622 212.0
22.8291 211.0
22.8959 233.0
22.9628 238.0
23.0296 208.0
23.0965 217.0
23.1633 212.0
23.2302 226.0
23.297 255.0
23.3639 211.0
23.4307 237.0
23.4975 238.0
23.5644 236.0
23.6312 226.0
23.6981 226.0
23.7649 224.0
23.8318 241.0
23.8986 224.0
23.9655 215.0
24.0323 223.0
24.0991 236.0
24.166 233.0
24.2328 225.0
24.2997 224.0
24.3665 228.0
24.4334 271.0
24.5002 241.0
24.5671 243.0
24.6339 245.0
24.7008 236.0
24.7676 238.0
24.8344 225.0
24.9013 241.0
24.9681 256.0
25.035 278.0
25.1018 247.0
25.1687 264.0
25.2355 278.0
25.3024 284.0
25.3692 279.0
25.436 294.0
25.5029 266.0
25.5697 288.0
25.6366 271.0
25.7034 274.0
25.7703 273.0
25.8371 273.0
25.904 269.0
25.9708 304.0
26.0377 273.0
26.1045 293.0
26.1713 328.0
26.2382 293.0
26.305 344.0
26.3719 302.0
26.4387 302.0
26.5056 322.0
26.5724 292.0
26.6393 325.0
26.7061 290.0
26.773 344.0
26.8398 322.0
26.9066 339.0
26.9735 346.0
27.0403 325.0
27.1072 367.0
27.174 324.0
27.2409 331.0
27.3077 380.0
27.3746 394.0
27.4414 345.0
27.5082 415.0
27.5751 371.0
27.6419 401.0
27.7088 417.0
27.7756 401.0
27.8425 378.0
27.9093 407.0
27.9762 381.0
28.043 397.0
28.1099 434.0
28.1767 380.0
28.2435 425.0
28.3104 404.0
28.3772 459.0
28.4441 432.0
28.5109 440.0
28.5778 474.0
28.6446 446.0
28.7115 506.0
28.7783 519.0
28.8451 477.0
28.912 506.0
28.9788 463.0
29.0457 505.0
29.1125 498.0
29.1794 532.0
29.2462 545.0
29.3131 535.0
29.3799 602.0
29.4468 603.0
29.5136 618.0
29.5804 663.0
29.6473 644.0
29.7141 705.0
29.781 716.0
29.8478 734.0
29.9147 680.0
29.9815 798.0
30.0484 819.0
30.1152 954.0
30.182 1049.0
30.2489 1099.0
30.3157 1323.0
30.3826 1649.0
30.4494 1912.0
30.5163 2301.0
30.5831 2775.0
30.65 2916.0
30.7168 2643.0
30.7837 2179.0
30.8505 1802.0
30.9173 1366.0
30.9842 1142.0
31.051 971.0
31.1179 963.0
31.1847 847.0
31.2516 760.0
31.3184 832.0
31.3853 791.0
31.4521 713.0
31.519 715.0
31.5858 738.0
31.6526 711.0
31.7195 691.0
31.7863 722.0
31.8532 683.0
31.92 724.0
31.9869 647.0
32.0537 658.0
32.1206 715.0
32.1874 665.0
32.2542 672.0
32.3211 697.0
32.3879 667.0
32.4548 686.0
32.5216 657.0
32.5885 675.0
32.6553 656.0
32.7222 646.0
32.789 627.0
32.8559 632.0
32.9227 644.0
32.9895 627.0
33.0564 639.0
33.1232 575.0
33.1901 650.0
33.2569 667.0
33.3238 572.0
33.3906 660.0
33.4575 613.0
33.5243 590.0
33.5911 580.0
33.658 634.0
33.7248 629.0
33.7917 613.0
33.8585 589.0
33.9254 570.0
33.9922 592.0
34.0591 576.0
34.1259 523.0
34.1928 538.0
34.2596 548.0
34.3264 558.0
34.3933 526.0
34.4601 511.0
34.527 520.0
34.5938 514.0
34.6607 522.0
34.7275 516.0
34.7944 534.0
34.8612 501.0
34.928 550.0
34.9949 527.0
35.0617 570.0
35.1286 603.0
35.1954 590.0
35.2623 716.0
35.3291 709.0
35.396 865.0
35.4628 920.0
35.5297 866.0
35.5965 830.0
35.6633 706.0
35.7302 572.0
35.797 478.0
35.8639 426.0
35.9307 434.0
35.9976 378.0
36.0644 358.0
36.1313 326.0
36.1981 310.0
36.265 301.0
36.3318 290.0
36.3986 313.0
36.4655 321.0
36.5323 279.0
36.5992 259.0
36.666 271.0
36.7329 248.0
36.7997 254.0
36.8666 247.0
36.9334 264.0
37.0002 252.0
37.0671 229.0
37.1339 261.0
37.2008 240.0
37.2676 239.0
37.3345 227.0
37.4013 191.0
37.4682 209.0
37.535 204.0
37.6019 201.0
37.6687 210.0
37.7355 206.0
37.8024 181.0
37.8692 194.0
37.9361 178.0
38.0029 192.0
38.0698 192.0
38.1366 180.0
38.2035 181.0
38.2703 194.0
38.3371 204.0
38.404 182.0
38.4708 176.0
38.5377 185.0
38.6045 164.0
38.6714 212.0
38.7382 184.0
38.8051 191.0
38.8719 175.0
38.9388 190.0
39.0056 196.0
39.0724 195.0
39.1393 169.0
39.2061 169.0
39.273 169.0
39.3398 165.0
39.4067 150.0
39.4735 199.0
39.5404 169.0
39.6072 180.0
39.6741 183.0
39.7409 181.0
39.8077 179.0
39.8746 177.0
39.9414 174.0
40.0083 208.0
40.0751 181.0
40.142 190.0
40.2088 205.0
40.2757 194.0
40.3425 184.0
40.4093 175.0
40.4762 176.0
40.543 168.0
40.6099 188.0
40.6767 169.0
40.7436 191.0
40.8104 219.0
40.8773 204.0
40.9441 166.0
41.011 201.0
41.0778 176.0
41.1446 185.0
41.2115 191.0
41.2783 195.0
41.3452 215.0
41.412 184.0
41.4789 213.0
41.5457 213.0
41.6126 214.0
41.6794 206.0
41.7462 210.0
41.8131 210.0
41.8799 207.0
41.9468 222.0
42.0136 190.0
42.0805 183.0
42.1473 201.0
42.2142 201.0
42.281 225.0
42.3479 209.0
42.4147 208.0
42.4815 221.0
42.5484 232.0
42.6152 231.0
42.6821 211.0
42.7489 255.0
42.8158 220.0
42.8826 212.0
42.9495 224.0
43.0163 225.0
43.0831 224.0
43.15 224.0
43.2168 208.0
43.2837 226.0
43.3505 252.0
43.4174 248.0
43.4842 250.0
43.5511 215.0
43.6179 254.0
43.6848 241.0
43.7516 233.0
43.8184 242.0
43.8853 231.0
43.9521 250.0
44.019 225.0
44.0858 252.0
44.1527 276.0
44.2195 248.0
44.2864 271.0
44.3532 260.0
44.4201 233.0
44.4869 285.0
44.5537 241.0
44.6206 237.0
44.6874 256.0
44.7543 252.0
44.8211 228.0
44.888 237.0
44.9548 247.0
45.0217 267.0
45.0885 237.0
45.1553 242.0
45.2222 253.0
45.289 269.0
45.3559 269.0
45.4227 284.0
45.4896 232.0
45.5564 279.0
45.6233 261.0
45.6901 284.0
45.757 276.0
45.8238 270.0
45.8906 261.0
45.9575 251.0
46.0243 263.0
46.0912 315.0
46.158 272.0
46.2249 273.0
46.2917 278.0
46.3586 262.0
46.4254 280.0
46.4922 257.0
46.5591 305.0
46.6259 308.0
46.6928 294.0
46.7596 301.0
46.8265 320.0
46.8933 286.0
46.9602 310.0
47.027 295.0
47.0939 307.0
47.1607 332.0
47.2275 267.0
47.2944 339.0
47.3612 273.0
47.4281 316.0
47.4949 322.0
47.5618 297.0
47.6286 317.0
47.6955 297.0
47.7623 293.0
47.8291 349.0
47.896 283.0
47.9628 366.0
48.0297 340.0
48.0965 356.0
48.1634 322.0
48.2302 350.0
48.2971 340.0
48.3639 345.0
48.4308 385.0
48.4976 329.0
48.5644 316.0
48.6313 362.0
48.6981 350.0
48.765 392.0
48.8318 365.0
48.8987 323.0
48.9655 388.0
49.0324 347.0
49.0992 393.0
49.1661 364.0
49.2329 384.0
49.2997 392.0
49.3666 415.0
49.4334 389.0
49.5003 400.0
49.5671 423.0
49.634 462.0
49.7008 432.0
49.7677 469.0
49.8345 430.0
49.9013 456.0
49.9682 450.0
50.035 513.0
50.1019 489.0
50.1687 551.0
50.2356 570.0
50.3024 583.0
50.3693 602.0
50.4361 659.0
50.503 695.0
50.5698 708.0
50.6366 861.0
50.7035 940.0
50.7703 1159.0
50.8372 1305.0
50.904 1499.0
50.9709 1574.0
51.0377 1620.0
51.1046 1501.0
51.1714 1338.0
51.2382 1088.0
51.3051 934.0
51.3719 763.0
51.4388 730.0
51.5056 670.0
51.5725 567.0
51.6393 550.0
51.7062 491.0
51.773 471.0
51.8399 451.0
51.9067 461.0
51.9735 447.0
52.0404 434.0
52.1072 409.0
52.1741 393.0
52.2409 393.0
52.3078 428.0
52.3746 392.0
52.4415 406.0
52.5083 387.0
52.5751 384.0
52.642 432.0
52.7088 422.0
52.7757 378.0
52.8425 376.0
52.9094 380.0
52.9762 372.0
53.0431 345.0
53.1099 372.0
53.1768 406.0
53.2436 406.0
53.3104 397.0
53.3773 395.0
53.4441 364.0
53.511 353.0
53.5778 418.0
53.6447 394.0
53.7115 344.0
53.7784 418.0
53.8452 384.0
53.9121 371.0
53.9789 391.0
54.0457 385.0
54.1126 401.0
54.1794 370.0
54.2463 383.0
54.3131 337.0
54.38 412.0
54.4468 355.0
54.5137 385.0
54.5805 388.0
54.6473 423.0
54.7142 406.0
54.781 366.0
54.8479 401.0
54.9147 377.0
54.9816 387.0
55.0484 340.0
55.1153 341.0
55.1821 406.0
55.249 383.0
55.3158 375.0
55.3826 352.0
55.4495 395.0
55.5163 408.0
55.5832 393.0
55.65 362.0
55.7169 406.0
55.7837 388.0
55.8506 356.0
55.9174 342.0
55.9842 382.0
56.0511 363.0
56.1179 381.0
56.1848 380.0
56.2516 370.0
56.3185 369.0
56.3853 375.0
56.4522 378.0
56.519 377.0
56.5859 340.0
56.6527 340.0
56.7195 335.0
56.7864 363.0
56.8532 362.0
56.9201 373.0
56.9869 370.0
57.0538 394.0
57.1206 346.0
57.1875 401.0
57.2543 369.0
57.3212 391.0
57.388 376.0
57.4548 382.0
57.5217 378.0
57.5885 375.0
57.6554 398.0
57.7222 382.0
57.7891 401.0
57.8559 392.0
57.9228 378.0
57.9896 376.0
58.0564 425.0
58.1233 386.0
58.1901 395.0
58.257 403.0
58.3238 350.0
58.3907 353.0
58.4575 427.0
58.5244 357.0
58.5912 399.0
58.6581 415.0
58.7249 402.0
58.7917 368.0
58.8586 392.0
58.9254 422.0
58.9923 429.0
59.0591 427.0
59.126 381.0
59.1928 453.0
59.2597 449.0
59.3265 428.0
59.3933 456.0
59.4602 474.0
59.527 420.0
59.5939 470.0
59.6607 492.0
59.7276 501.0
59.7944 489.0
59.8613 516.0
59.9281 551.0
59.995 598.0
60.0618 571.0
60.1286 628.0
60.1955 653.0
60.2623 747.0
60.3292 819.0
60.396 941.0
60.4629 1057.0
60.5297 1130.0
60.5966 1115.0
60.6634 1201.0
60.7302 1143.0
60.7971 992.0
60.8639 880.0
60.9308 724.0
60.9976 695.0
61.0645 570.0
61.1313 545.0
61.1982 496.0
61.265 480.0
61.3319 511.0
61.3987 440.0
61.4655 417.0
61.5324 385.0
61.5992 392.0
61.6661 400.0
61.7329 365.0
61.7998 358.0
61.8666 380.0
61.9335 379.0
62.0003 360.0
62.0672 358.0
62.134 361.0
62.2008 367.0
62.2677 349.0
62.3345 355.0
62.4014 326.0
62.4682 313.0
62.5351 336.0
62.6019 334.0
62.6688 311.0
62.7356 368.0
62.8024 323.0
62.8693 339.0
62.9361 356.0
63.003 375.0
63.0698 346.0
63.1367 376.0
63.2035 381.0
63.2704 386.0
63.3372 410.0
63.4041 442.0
63.4709 424.0
63.5377 429.0
63.6046 412.0
63.6714 384.0
63.7383 391.0
63.8051 378.0
63.872 368.0
63.9388 328.0
64.0057 320.0
64.0725 282.0
64.1393 313.0
64.2062 321.0
64.273 293.0
64.3399 348.0
64.4067 290.0
64.4736 299.0
64.5404 280.0
64.6073 290.0
64.6741 313.0
64.741 263.0
64.8078 282.0
64.8746 261.0
64.9415 259.0
65.0083 268.0
65.0752 275.0
65.142 276.0
65.2089 294.0
65.2757 268.0
65.3426 261.0
65.4094 254.0
65.4762 274.0
65.5431 244.0
65.6099 275.0
65.6768 258.0
65.7436 275.0
65.8105 253.0
65.8773 239.0
65.9442 258.0
66.011 245.0
66.0779 262.0
66.1447 267.0
66.2115 260.0
66.2784 241.0
66.3452 239.0
66.4121 217.0
66.4789 247.0
66.5458 274.0
66.6126 260.0
66.6795 244.0
66.7463 240.0
66.8132 224.0
66.88 242.0
66.9468 272.0
67.0137 231.0
67.0805 228.0
67.1474 228.0
67.2142 232.0
67.2811 250.0
67.3479 206.0
67.4148 206.0
67.4816 253.0
67.5484 224.0
67.6153 219.0
67.6821 239.0
67.749 225.0
67.8158 226.0
67.8827 188.0
67.9495 228.0
68.0164 219.0
68.0832 193.0
68.1501 220.0
68.2169 216.0
68.2837 225.0
68.3506 215.0
68.4174 211.0
68.4843 206.0
68.5511 210.0
68.618 240.0
68.6848 200.0
68.7517 209.0
68.8185 205.0
68.8853 207.0
68.9522 198.0
69.019 236.0
69.0859 186.0
69.1527 184.0
69.2196 225.0
69.2864 193.0
69.3533 199.0
69.4201 204.0
69.487 198.0
69.5538 189.0
69.6206 201.0
69.6875 188.0
69.7543 192.0
69.8212 195.0
69.888 189.0
69.9549 163.0
70.0217 176.0
70.0886 178.0
70.1554 176.0
70.2222 155.0
70.2891 199.0
70.3559 172.0
70.4228 182.0
70.4896 183.0
70.5565 190.0
70.6233 206.0
70.6902 225.0
70.757 182.0
70.8239 189.0
70.8907 169.0
70.9575 164.0
71.0244 184.0
71.0912 150.0
71.1581 199.0
71.2249 178.0
71.2918 169.0
71.3586 160.0
71.4255 166.0
71.4923 168.0
71.5592 193.0
71.626 190.0
71.6928 178.0
71.7597 182.0
71.8265 196.0
71.8934 174.0
71.9602 165.0
72.0271 201.0
72.0939 183.0
72.1608 164.0
72.2276 178.0
72.2944 181.0
72.3613 167.0
72.4281 175.0
72.495 151.0
72.5618 167.0
72.6287 167.0
72.6955 167.0
72.7624 160.0
72.8292 164.0
72.8961 176.0
72.9629 184.0
73.0297 157.0
73.0966 181.0
73.1634 158.0
73.2303 177.0
73.2971 177.0
73.364 177.0
73.4308 181.0
73.4977 180.0
73.5645 163.0
73.6313 185.0
73.6982 178.0
73.765 181.0
73.8319 188.0
73.8987 172.0
73.9656 183.0
74.0324 197.0
74.0993 182.0
74.1661 185.0
74.233 197.0
74.2998 224.0
74.3666 216.0
74.4335 199.0
74.5003 214.0
74.5672 223.0
74.634 221.0
74.7009 277.0
74.7677 243.0
74.8346 325.0
74.9014 280.0
74.9683 292.0
75.0351 297.0
75.1019 288.0
75.1688 236.0
75.2356 231.0
75.3025 211.0
75.3693 196.0
75.4362 191.0
75.503 149.0
75.5699 193.0
75.6367 182.0
75.7035 175.0
75.7704 164.0
75.8372 183.0
75.9041 160.0
75.9709 154.0
76.0378 151.0
76.1046 134.0
76.1715 172.0
76.2383 147.0
76.3052 160.0
76.372 150.0
76.4388 167.0
76.5057 147.0
76.5725 149.0
76.6394 168.0
76.7062 158.0
76.7731 157.0
76.8399 165.0
76.9068 142.0
76.9736 175.0
77.0404 146.0
77.1073 165.0
77.1741 174.0
77.241 159.0
77.3078 159.0
77.3747 147.0
77.4415 182.0
77.5084 164.0
77.5752 158.0
77.6421 157.0
77.7089 155.0
77.7757 170.0
77.8426 150.0
77.9094 150.0
77.9763 173.0
78.0431 158.0
78.11 169.0
78.1768 151.0
78.2437 163.0
78.3105 170.0
78.3773 154.0
78.4442 176.0
78.511 166.0
78.5779 147.0
78.6447 162.0
78.7116 166.0
78.7784 170.0
78.8453 172.0
78.9121 161.0
78.979 178.0
79.0458 160.0
79.1126 154.0
79.1795 166.0
79.2463 172.0
79.3132 157.0
79.38 209.0
79.4469 176.0
79.5137 175.0
79.5806 172.0
79.6474 169.0
79.7143 192.0
79.7811 169.0
79.8479 191.0
79.9148 165.0
79.9816 152.0
80.0485 182.0
80.1153 167.0
80.1822 172.0
80.249 191.0
80.3159 164.0
80.3827 199.0
80.4495 189.0
80.5164 178.0
80.5832 190.0
80.6501 184.0
80.7169 194.0
80.7838 173.0
80.8506 179.0
80.9175 186.0
80.9843 169.0
81.0512 196.0
81.118 212.0
81.1848 205.0
81.2517 186.0
81.3185 220.0
81.3854 193.0
81.4522 222.0
81.5191 211.0
81.5859 247.0
81.6528 221.0
81.7196 233.0
81.7864 213.0
81.8533 231.0
81.9201 214.0
81.987 277.0
82.0538 255.0
82.1207 268.0
82.1875 237.0
82.2544 268.0
82.3212 240.0
82.3881 278.0
82.4549 282.0
82.5217 319.0
82.5886 352.0
82.6554 313.0
82.7223 338.0
82.7891 434.0
82.856 376.0
82.9228 403.0
82.9897 403.0
83.0565 436.0
83.1233 397.0
83.1902 383.0
83.257 361.0
83.3239 346.0
83.3907 267.0
83.4576 315.0
83.5244 271.0
83.5913 261.0
83.6581 282.0
83.725 257.0
83.7918 264.0
83.8586 239.0
83.9255 253.0
83.9923 268.0
84.0592 215.0
84.126 229.0
84.1929 225.0
84.2597 235.0
84.3266 221.0
84.3934 223.0
84.4603 216.0
84.5271 240.0
84.5939 208.0
84.6608 243.0
84.7276 226.0
84.7945 258.0
84.8613 276.0
84.9282 273.0
84.995 255.0
85.0619 248.0
85.1287 284.0
85.1955 274.0
85.2624 289.0
85.3292 297.0
85.3961 310.0
85.4629 320.0
85.5298 330.0
85.5966 335.0
85.6635 323.0
85.7303 331.0
85.7972 311.0
85.864 317.0
85.9308 310.0
85.9977 295.0
86.0645 264.0
86.1314 298.0
86.1982 221.0
86.2651 247.0
86.3319 228.0
86.3988 215.0
86.4656 224.0
86.5324 205.0
86.5993 200.0
86.6661 195.0
86.733 212.0
86.7998 197.0
86.8667 207.0
86.9335 247.0
87.0004 236.0
87.0672 212.0
87.1341 178.0
87.2009 200.0
87.2677 203.0
87.3346 177.0
87.4014 204.0
87.4683 180.0
87.5351 209.0
87.602 200.0
87.6688 213.0
87.7357 223.0
87.8025 184.0
87.8693 215.0
87.9362 190.0
88.003 208.0
88.0699 176.0
88.1367 210.0
88.2036 194.0
88.2704 168.0
88.3373 210.0
88.4041 180.0
88.471 176.0
88.5378 210.0
88.6046 185.0
88.6715 199.0
88.7383 207.0
88.8052 185.0
88.872 175.0
88.9389 195.0
89.0057 204.0
89.0726 155.0
89.1394 199.0
89.2063 174.0
89.2731 179.0
89.3399 184.0
89.4068 191.0
89.4736 188.0
89.5405 209.0
89.6073 197.0
89.6742 197.0
89.741 188.0
89.8079 168.0
89.8747 214.0
89.9415 178.0