File: code/XRD_Analysis/External Sources/Fabian/20240402_RUB-50_calc_lessmaterial.xy
4.98146 1351.0
5.0483 1367.0
5.11515 1380.0
5.18199 1315.0
5.24884 1273.0
5.31568 1273.0
5.38253 1178.0
5.44937 1216.0
5.51622 1208.0
5.58306 1187.0
5.64991 1219.0
5.71675 1141.0
5.7836 1099.0
5.85044 1127.0
5.91729 1121.0
5.98413 1147.0
6.05098 1109.0
6.11782 1058.0
6.18467 1059.0
6.25151 1042.0
6.31836 1086.0
6.3852 1013.0
6.45205 1037.0
6.51889 1023.0
6.58574 1078.0
6.65258 1058.0
6.71943 1028.0
6.78627 1084.0
6.85312 1029.0
6.91996 1122.0
6.98681 1209.0
7.05365 1332.0
7.1205 1401.0
7.18734 1564.0
7.25419 1790.0
7.32103 2140.0
7.38788 2592.0
7.45472 2385.0
7.52157 1906.0
7.58841 1529.0
7.65526 1401.0
7.7221 1250.0
7.78895 1192.0
7.85579 1169.0
7.92264 1138.0
7.98948 1218.0
8.05633 1300.0
8.12317 1341.0
8.19002 1350.0
8.25686 1437.0
8.32371 1493.0
8.39055 1533.0
8.4574 1447.0
8.52424 1522.0
8.59109 1540.0
8.65793 1471.0
8.72478 1552.0
8.79162 1441.0
8.85847 1423.0
8.92532 1431.0
8.99216 1431.0
9.05901 1413.0
9.12585 1428.0
9.1927 1379.0
9.25954 1421.0
9.32639 1492.0
9.39323 1367.0
9.46008 1408.0
9.52692 1385.0
9.59377 1328.0
9.66061 1426.0
9.72746 1349.0
9.7943 1351.0
9.86115 1352.0
9.92799 1338.0
9.99484 1308.0
10.0617 1364.0
10.1285 1253.0
10.1954 1137.0
10.2622 1132.0
10.3291 1109.0
10.3959 1081.0
10.4628 1058.0
10.5296 945.0
10.5964 1007.0
10.6633 942.0
10.7301 810.0
10.797 823.0
10.8638 781.0
10.9307 739.0
10.9975 770.0
11.0644 697.0
11.1312 650.0
11.198 704.0
11.2649 664.0
11.3317 632.0
11.3986 637.0
11.4654 555.0
11.5323 665.0
11.5991 612.0
11.666 575.0
11.7328 552.0
11.7997 587.0
11.8665 584.0
11.9333 578.0
12.0002 587.0
12.067 575.0
12.1339 556.0
12.2007 553.0
12.2676 532.0
12.3344 590.0
12.4013 559.0
12.4681 621.0
12.5349 645.0
12.6018 586.0
12.6686 618.0
12.7355 662.0
12.8023 672.0
12.8692 711.0
12.936 692.0
13.0029 710.0
13.0697 717.0
13.1366 762.0
13.2034 707.0
13.2702 717.0
13.3371 669.0
13.4039 638.0
13.4708 628.0
13.5376 580.0
13.6045 606.0
13.6713 656.0
13.7382 590.0
13.805 613.0
13.8719 579.0
13.9387 627.0
14.0055 662.0
14.0724 661.0
14.1392 734.0
14.2061 712.0
14.2729 810.0
14.3398 861.0
14.4066 961.0
14.4735 1159.0
14.5403 1402.0
14.6071 1630.0
14.674 1747.0
14.7408 1598.0
14.8077 1528.0
14.8745 1397.0
14.9414 1287.0
15.0082 1260.0
15.0751 1142.0
15.1419 1127.0
15.2088 1076.0
15.2756 1055.0
15.3424 1069.0
15.4093 984.0
15.4761 956.0
15.543 935.0
15.6098 958.0
15.6767 922.0
15.7435 939.0
15.8104 885.0
15.8772 916.0
15.944 884.0
16.0109 926.0
16.0777 882.0
16.1446 899.0
16.2114 876.0
16.2783 834.0
16.3451 800.0
16.412 830.0
16.4788 766.0
16.5457 771.0
16.6125 700.0
16.6793 743.0
16.7462 673.0
16.813 638.0
16.8799 578.0
16.9467 629.0
17.0136 644.0
17.0804 618.0
17.1473 604.0
17.2141 570.0
17.2809 592.0
17.3478 550.0
17.4146 578.0
17.4815 590.0
17.5483 610.0
17.6152 556.0
17.682 520.0
17.7489 553.0
17.8157 537.0
17.8826 583.0
17.9494 567.0
18.0162 592.0
18.0831 605.0
18.1499 580.0
18.2168 616.0
18.2836 667.0
18.3505 675.0
18.4173 684.0
18.4842 665.0
18.551 707.0
18.6179 712.0
18.6847 767.0
18.7515 766.0
18.8184 793.0
18.8852 825.0
18.9521 828.0
19.0189 899.0
19.0858 898.0
19.1526 929.0
19.2195 987.0
19.2863 962.0
19.3531 1050.0
19.42 1043.0
19.4868 1022.0
19.5537 1060.0
19.6205 1110.0
19.6874 1104.0
19.7542 1110.0
19.8211 1157.0
19.8879 1141.0
19.9548 1163.0
20.0216 1067.0
20.0884 1231.0
20.1553 1173.0
20.2221 1176.0
20.289 1150.0
20.3558 1191.0
20.4227 1169.0
20.4895 1099.0
20.5564 1060.0
20.6232 1097.0
20.69 1069.0
20.7569 986.0
20.8237 994.0
20.8906 1011.0
20.9574 987.0
21.0243 977.0
21.0911 899.0
21.158 956.0
21.2248 937.0
21.2917 876.0
21.3585 896.0
21.4253 981.0
21.4922 980.0
21.559 1026.0
21.6259 1143.0
21.6927 1123.0
21.7596 1218.0
21.8264 1333.0
21.8933 1462.0
21.9601 1493.0
22.0269 1576.0
22.0938 1683.0
22.1606 1665.0
22.2275 1824.0
22.2943 2035.0
22.3612 2004.0
22.428 2094.0
22.4949 2164.0
22.5617 2288.0
22.6286 2334.0
22.6954 2369.0
22.7622 2458.0
22.8291 2557.0
22.8959 2531.0
22.9628 2441.0
23.0296 2394.0
23.0965 2317.0
23.1633 2254.0
23.2302 2119.0
23.297 1963.0
23.3639 1935.0
23.4307 1791.0
23.4975 1855.0
23.5644 1734.0
23.6312 1642.0
23.6981 1744.0
23.7649 1678.0
23.8318 1601.0
23.8986 1542.0
23.9655 1493.0
24.0323 1491.0
24.0991 1501.0
24.166 1499.0
24.2328 1430.0
24.2997 1339.0
24.3665 1302.0
24.4334 1237.0
24.5002 1192.0
24.5671 1227.0
24.6339 1225.0
24.7008 1163.0
24.7676 1136.0
24.8344 1098.0
24.9013 1224.0
24.9681 1207.0
25.035 1166.0
25.1018 1356.0
25.1687 1448.0
25.2355 1643.0
25.3024 1851.0
25.3692 1933.0
25.436 1928.0
25.5029 1807.0
25.5697 1725.0
25.6366 1614.0
25.7034 1600.0
25.7703 1593.0
25.8371 1582.0
25.904 1683.0
25.9708 1840.0
26.0377 1974.0
26.1045 2281.0
26.1713 2708.0
26.2382 3086.0
26.305 3421.0
26.3719 3650.0
26.4387 3456.0
26.5056 2952.0
26.5724 2594.0
26.6393 2283.0
26.7061 2073.0
26.773 2037.0
26.8398 2030.0
26.9066 2018.0
26.9735 2064.0
27.0403 2084.0
27.1072 2031.0
27.174 1991.0
27.2409 1986.0
27.3077 1793.0
27.3746 1796.0
27.4414 1803.0
27.5082 1627.0
27.5751 1640.0
27.6419 1579.0
27.7088 1569.0
27.7756 1474.0
27.8425 1391.0
27.9093 1415.0
27.9762 1396.0
28.043 1384.0
28.1099 1440.0
28.1767 1364.0
28.2435 1269.0
28.3104 1262.0
28.3772 1281.0
28.4441 1256.0
28.5109 1215.0
28.5778 1158.0
28.6446 1195.0
28.7115 1159.0
28.7783 1135.0
28.8451 1134.0
28.912 1071.0
28.9788 1080.0
29.0457 1070.0
29.1125 1027.0
29.1794 1009.0
29.2462 967.0
29.3131 994.0
29.3799 962.0
29.4468 957.0
29.5136 934.0
29.5804 985.0
29.6473 933.0
29.7141 848.0
29.781 854.0
29.8478 913.0
29.9147 839.0
29.9815 798.0
30.0484 758.0
30.1152 785.0
30.182 744.0
30.2489 721.0
30.3157 746.0
30.3826 731.0
30.4494 701.0
30.5163 708.0
30.5831 684.0
30.65 690.0
30.7168 674.0
30.7837 690.0
30.8505 664.0
30.9173 664.0
30.9842 663.0
31.051 643.0
31.1179 629.0
31.1847 628.0
31.2516 602.0
31.3184 606.0
31.3853 604.0
31.4521 601.0
31.519 604.0
31.5858 643.0
31.6526 611.0
31.7195 672.0
31.7863 653.0
31.8532 773.0
31.92 757.0
31.9869 787.0
32.0537 785.0
32.1206 787.0
32.1874 802.0
32.2542 770.0
32.3211 710.0
32.3879 725.0
32.4548 699.0
32.5216 674.0
32.5885 742.0
32.6553 679.0
32.7222 701.0
32.789 686.0
32.8559 691.0
32.9227 744.0
32.9895 717.0
33.0564 717.0
33.1232 761.0
33.1901 775.0
33.2569 732.0
33.3238 808.0
33.3906 777.0
33.4575 840.0
33.5243 875.0
33.5911 802.0
33.658 835.0
33.7248 814.0
33.7917 865.0
33.8585 807.0
33.9254 790.0
33.9922 776.0
34.0591 823.0
34.1259 785.0
34.1928 773.0
34.2596 711.0
34.3264 701.0
34.3933 742.0
34.4601 719.0
34.527 692.0
34.5938 703.0
34.6607 729.0
34.7275 667.0
34.7944 659.0
34.8612 690.0
34.928 636.0
34.9949 710.0
35.0617 646.0
35.1286 615.0
35.1954 610.0
35.2623 569.0
35.3291 610.0
35.396 580.0
35.4628 524.0
35.5297 564.0
35.5965 571.0
35.6633 527.0
35.7302 599.0
35.797 542.0
35.8639 536.0
35.9307 529.0
35.9976 523.0
36.0644 493.0
36.1313 470.0
36.1981 475.0
36.265 453.0
36.3318 475.0
36.3986 486.0
36.4655 488.0
36.5323 465.0
36.5992 505.0
36.666 527.0
36.7329 532.0
36.7997 534.0
36.8666 551.0
36.9334 504.0
37.0002 529.0
37.0671 528.0
37.1339 509.0
37.2008 538.0
37.2676 518.0
37.3345 511.0
37.4013 554.0
37.4682 505.0
37.535 547.0
37.6019 498.0
37.6687 506.0
37.7355 526.0
37.8024 533.0
37.8692 567.0
37.9361 500.0
38.0029 519.0
38.0698 539.0
38.1366 602.0
38.2035 637.0
38.2703 602.0
38.3371 607.0
38.404 581.0
38.4708 576.0
38.5377 533.0
38.6045 533.0
38.6714 490.0
38.7382 472.0
38.8051 485.0
38.8719 446.0
38.9388 435.0
39.0056 500.0
39.0724 459.0
39.1393 449.0
39.2061 445.0
39.273 440.0
39.3398 451.0
39.4067 448.0
39.4735 481.0
39.5404 396.0
39.6072 407.0
39.6741 433.0
39.7409 454.0
39.8077 402.0
39.8746 416.0
39.9414 429.0
40.0083 419.0
40.0751 440.0
40.142 420.0
40.2088 462.0
40.2757 426.0
40.3425 454.0
40.4093 450.0
40.4762 423.0
40.543 467.0
40.6099 432.0
40.6767 451.0
40.7436 471.0
40.8104 457.0
40.8773 469.0
40.9441 441.0
41.011 418.0
41.0778 490.0
41.1446 458.0
41.2115 457.0
41.2783 438.0
41.3452 460.0
41.412 428.0
41.4789 470.0
41.5457 419.0
41.6126 451.0
41.6794 438.0
41.7462 389.0
41.8131 414.0
41.8799 440.0
41.9468 434.0
42.0136 418.0
42.0805 414.0
42.1473 427.0
42.2142 439.0
42.281 431.0
42.3479 413.0
42.4147 389.0
42.4815 410.0
42.5484 435.0
42.6152 443.0
42.6821 411.0
42.7489 430.0
42.8158 474.0
42.8826 433.0
42.9495 438.0
43.0163 436.0
43.0831 418.0
43.15 396.0
43.2168 458.0
43.2837 457.0
43.3505 453.0
43.4174 404.0
43.4842 470.0
43.5511 460.0
43.6179 461.0
43.6848 430.0
43.7516 428.0
43.8184 463.0
43.8853 426.0
43.9521 449.0
44.019 432.0
44.0858 443.0
44.1527 454.0
44.2195 430.0
44.2864 442.0
44.3532 440.0
44.4201 387.0
44.4869 454.0
44.5537 476.0
44.6206 487.0
44.6874 466.0
44.7543 485.0
44.8211 440.0
44.888 500.0
44.9548 495.0
45.0217 501.0
45.0885 479.0
45.1553 559.0
45.2222 516.0
45.289 503.0
45.3559 459.0
45.4227 518.0
45.4896 427.0
45.5564 490.0
45.6233 464.0
45.6901 470.0
45.757 482.0
45.8238 487.0
45.8906 467.0
45.9575 481.0
46.0243 446.0
46.0912 513.0
46.158 470.0
46.2249 492.0
46.2917 513.0
46.3586 522.0
46.4254 517.0
46.4922 566.0
46.5591 569.0
46.6259 541.0
46.6928 558.0
46.7596 587.0
46.8265 617.0
46.8933 547.0
46.9602 532.0
47.027 512.0
47.0939 519.0
47.1607 497.0
47.2275 513.0
47.2944 473.0
47.3612 427.0
47.4281 467.0
47.4949 464.0
47.5618 448.0
47.6286 419.0
47.6955 463.0
47.7623 439.0
47.8291 401.0
47.896 391.0
47.9628 456.0
48.0297 430.0
48.0965 445.0
48.1634 409.0
48.2302 458.0
48.2971 422.0
48.3639 478.0
48.4308 444.0
48.4976 477.0
48.5644 492.0
48.6313 490.0
48.6981 501.0
48.765 541.0
48.8318 527.0
48.8987 547.0
48.9655 503.0
49.0324 532.0
49.0992 524.0
49.1661 534.0
49.2329 510.0
49.2997 524.0
49.3666 500.0
49.4334 537.0
49.5003 518.0
49.5671 525.0
49.634 482.0
49.7008 476.0
49.7677 513.0
49.8345 436.0
49.9013 488.0
49.9682 472.0
50.035 469.0
50.1019 461.0
50.1687 439.0
50.2356 450.0
50.3024 409.0
50.3693 426.0
50.4361 441.0
50.503 441.0
50.5698 431.0
50.6366 461.0
50.7035 424.0
50.7703 459.0
50.8372 449.0
50.904 470.0
50.9709 422.0
51.0377 440.0
51.1046 476.0
51.1714 433.0
51.2382 481.0
51.3051 420.0
51.3719 480.0
51.4388 462.0
51.5056 486.0
51.5725 490.0
51.6393 458.0
51.7062 490.0
51.773 516.0
51.8399 498.0
51.9067 447.0
51.9735 477.0
52.0404 486.0
52.1072 429.0
52.1741 453.0
52.2409 471.0
52.3078 471.0
52.3746 482.0
52.4415 462.0
52.5083 497.0
52.5751 507.0
52.642 507.0
52.7088 477.0
52.7757 471.0
52.8425 482.0
52.9094 503.0
52.9762 455.0
53.0431 427.0
53.1099 441.0
53.1768 406.0
53.2436 444.0
53.3104 406.0
53.3773 425.0
53.4441 377.0
53.511 384.0
53.5778 413.0
53.6447 443.0
53.7115 397.0
53.7784 413.0
53.8452 404.0
53.9121 399.0
53.9789 371.0
54.0457 381.0
54.1126 409.0
54.1794 408.0
54.2463 377.0
54.3131 394.0
54.38 435.0
54.4468 391.0
54.5137 406.0
54.5805 373.0
54.6473 404.0
54.7142 402.0
54.781 338.0
54.8479 410.0
54.9147 364.0
54.9816 363.0
55.0484 370.0
55.1153 379.0
55.1821 363.0
55.249 354.0
55.3158 323.0
55.3826 404.0
55.4495 381.0
55.5163 358.0
55.5832 362.0
55.65 347.0
55.7169 347.0
55.7837 329.0
55.8506 384.0
55.9174 379.0
55.9842 358.0
56.0511 360.0
56.1179 364.0
56.1848 375.0
56.2516 381.0
56.3185 378.0
56.3853 379.0
56.4522 351.0
56.519 366.0
56.5859 436.0
56.6527 401.0
56.7195 430.0
56.7864 378.0
56.8532 393.0
56.9201 380.0
56.9869 406.0
57.0538 413.0
57.1206 458.0
57.1875 410.0
57.2543 404.0
57.3212 412.0
57.388 385.0
57.4548 396.0
57.5217 403.0
57.5885 386.0
57.6554 335.0
57.7222 363.0
57.7891 389.0
57.8559 385.0
57.9228 413.0
57.9896 379.0
58.0564 372.0
58.1233 392.0
58.1901 338.0
58.257 380.0
58.3238 344.0
58.3907 372.0
58.4575 367.0
58.5244 358.0
58.5912 410.0
58.6581 401.0
58.7249 361.0
58.7917 349.0
58.8586 361.0
58.9254 350.0
58.9923 403.0
59.0591 393.0
59.126 350.0
59.1928 383.0
59.2597 366.0
59.3265 377.0
59.3933 356.0
59.4602 398.0
59.527 368.0
59.5939 371.0
59.6607 348.0
59.7276 369.0
59.7944 392.0
59.8613 363.0
59.9281 365.0
59.995 383.0
60.0618 397.0
60.1286 367.0
60.1955 424.0
60.2623 404.0
60.3292 426.0
60.396 398.0
60.4629 402.0
60.5297 410.0
60.5966 358.0
60.6634 384.0
60.7302 371.0
60.7971 407.0
60.8639 382.0
60.9308 357.0
60.9976 388.0
61.0645 409.0
61.1313 426.0
61.1982 384.0
61.265 368.0
61.3319 402.0
61.3987 400.0
61.4655 382.0
61.5324 402.0
61.5992 423.0
61.6661 404.0
61.7329 403.0
61.7998 439.0
61.8666 401.0
61.9335 416.0
62.0003 401.0
62.0672 419.0
62.134 426.0
62.2008 391.0
62.2677 380.0
62.3345 419.0
62.4014 386.0
62.4682 370.0
62.5351 410.0
62.6019 364.0
62.6688 422.0
62.7356 375.0
62.8024 389.0
62.8693 391.0
62.9361 360.0
63.003 399.0
63.0698 408.0
63.1367 394.0
63.2035 391.0
63.2704 355.0
63.3372 378.0
63.4041 382.0
63.4709 375.0
63.5377 392.0
63.6046 387.0
63.6714 381.0
63.7383 395.0
63.8051 384.0
63.872 409.0
63.9388 380.0
64.0057 384.0
64.0725 407.0
64.1393 375.0
64.2062 420.0
64.273 385.0
64.3399 371.0
64.4067 392.0
64.4736 394.0
64.5404 413.0
64.6073 432.0
64.6741 391.0
64.741 442.0
64.8078 411.0
64.8746 397.0
64.9415 464.0
65.0083 431.0
65.0752 441.0
65.142 457.0
65.2089 418.0
65.2757 425.0
65.3426 441.0
65.4094 454.0
65.4762 523.0
65.5431 456.0
65.6099 477.0
65.6768 488.0
65.7436 518.0
65.8105 505.0
65.8773 493.0
65.9442 505.0
66.011 474.0
66.0779 534.0
66.1447 518.0
66.2115 551.0
66.2784 497.0
66.3452 537.0
66.4121 538.0
66.4789 523.0
66.5458 498.0
66.6126 482.0
66.6795 481.0
66.7463 477.0
66.8132 478.0
66.88 459.0
66.9468 444.0
67.0137 449.0
67.0805 382.0
67.1474 406.0
67.2142 433.0
67.2811 396.0
67.3479 399.0
67.4148 391.0
67.4816 423.0
67.5484 351.0
67.6153 446.0
67.6821 370.0
67.749 413.0
67.8158 391.0
67.8827 378.0
67.9495 383.0
68.0164 384.0
68.0832 389.0
68.1501 331.0
68.2169 347.0
68.2837 398.0
68.3506 379.0
68.4174 370.0
68.4843 376.0
68.5511 342.0
68.618 364.0
68.6848 346.0
68.7517 316.0
68.8185 412.0
68.8853 339.0
68.9522 370.0
69.019 375.0
69.0859 357.0
69.1527 383.0
69.2196 334.0
69.2864 341.0
69.3533 393.0
69.4201 326.0
69.487 372.0
69.5538 373.0
69.6206 322.0
69.6875 356.0
69.7543 353.0
69.8212 393.0
69.888 331.0
69.9549 332.0
70.0217 329.0
70.0886 332.0
70.1554 384.0
70.2222 346.0
70.2891 364.0
70.3559 387.0
70.4228 378.0
70.4896 373.0
70.5565 394.0
70.6233 391.0
70.6902 355.0
70.757 375.0
70.8239 376.0
70.8907 381.0
70.9575 389.0
71.0244 357.0
71.0912 367.0
71.1581 371.0
71.2249 381.0
71.2918 338.0
71.3586 391.0
71.4255 363.0
71.4923 375.0
71.5592 378.0
71.626 338.0
71.6928 351.0
71.7597 364.0
71.8265 369.0
71.8934 346.0
71.9602 324.0
72.0271 314.0
72.0939 329.0
72.1608 358.0
72.2276 351.0
72.2944 340.0
72.3613 355.0
72.4281 376.0
72.495 370.0
72.5618 352.0
72.6287 361.0
72.6955 344.0
72.7624 362.0
72.8292 362.0
72.8961 340.0
72.9629 348.0
73.0297 360.0
73.0966 365.0
73.1634 361.0
73.2303 363.0
73.2971 371.0
73.364 355.0
73.4308 366.0
73.4977 372.0
73.5645 331.0
73.6313 356.0
73.6982 360.0
73.765 360.0
73.8319 360.0
73.8987 351.0
73.9656 338.0
74.0324 367.0
74.0993 362.0
74.1661 347.0
74.233 388.0
74.2998 349.0
74.3666 369.0
74.4335 347.0
74.5003 342.0
74.5672 360.0
74.634 332.0
74.7009 309.0
74.7677 329.0
74.8346 361.0
74.9014 339.0
74.9683 360.0
75.0351 369.0
75.1019 313.0
75.1688 319.0
75.2356 338.0
75.3025 352.0
75.3693 344.0
75.4362 365.0
75.503 326.0
75.5699 305.0
75.6367 346.0
75.7035 335.0
75.7704 323.0
75.8372 299.0
75.9041 324.0
75.9709 311.0
76.0378 310.0
76.1046 340.0
76.1715 355.0
76.2383 333.0
76.3052 332.0
76.372 304.0
76.4388 345.0
76.5057 323.0
76.5725 332.0
76.6394 380.0
76.7062 352.0
76.7731 360.0
76.8399 326.0
76.9068 365.0
76.9736 332.0
77.0404 323.0
77.1073 323.0
77.1741 315.0
77.241 367.0
77.3078 361.0
77.3747 344.0
77.4415 292.0
77.5084 332.0
77.5752 322.0
77.6421 361.0
77.7089 369.0
77.7757 351.0
77.8426 331.0
77.9094 375.0
77.9763 354.0
78.0431 349.0
78.11 372.0
78.1768 371.0
78.2437 323.0
78.3105 373.0
78.3773 376.0
78.4442 354.0
78.511 383.0
78.5779 375.0
78.6447 364.0
78.7116 339.0
78.7784 361.0
78.8453 394.0
78.9121 358.0
78.979 366.0
79.0458 362.0
79.1126 395.0
79.1795 341.0
79.2463 357.0
79.3132 386.0
79.38 399.0
79.4469 348.0
79.5137 362.0
79.5806 356.0
79.6474 339.0
79.7143 310.0
79.7811 381.0
79.8479 315.0
79.9148 358.0
79.9816 305.0
80.0485 341.0
80.1153 313.0
80.1822 313.0
80.249 345.0
80.3159 297.0
80.3827 313.0
80.4495 324.0
80.5164 314.0
80.5832 349.0
80.6501 287.0
80.7169 316.0
80.7838 313.0
80.8506 331.0
80.9175 316.0
80.9843 282.0
81.0512 282.0
81.118 325.0
81.1848 273.0
81.2517 297.0
81.3185 287.0
81.3854 275.0
81.4522 282.0
81.5191 285.0
81.5859 301.0
81.6528 305.0
81.7196 311.0
81.7864 277.0
81.8533 263.0
81.9201 245.0
81.987 301.0
82.0538 288.0
82.1207 266.0
82.1875 288.0
82.2544 277.0
82.3212 266.0
82.3881 264.0
82.4549 255.0
82.5217 279.0
82.5886 248.0
82.6554 255.0
82.7223 244.0
82.7891 251.0
82.856 245.0
82.9228 306.0
82.9897 256.0
83.0565 271.0
83.1233 237.0
83.1902 275.0
83.257 253.0
83.3239 251.0
83.3907 238.0
83.4576 262.0
83.5244 268.0
83.5913 253.0
83.6581 246.0
83.725 266.0
83.7918 266.0
83.8586 238.0
83.9255 250.0
83.9923 243.0
84.0592 204.0
84.126 241.0
84.1929 242.0
84.2597 214.0
84.3266 229.0
84.3934 197.0
84.4603 244.0
84.5271 240.0
84.5939 255.0
84.6608 256.0
84.7276 227.0
84.7945 267.0
84.8613 216.0
84.9282 246.0
84.995 227.0
85.0619 242.0
85.1287 230.0
85.1955 210.0
85.2624 215.0
85.3292 228.0
85.3961 230.0
85.4629 245.0
85.5298 239.0
85.5966 241.0
85.6635 221.0
85.7303 216.0
85.7972 214.0
85.864 225.0
85.9308 228.0
85.9977 226.0
86.0645 235.0
86.1314 220.0
86.1982 186.0
86.2651 217.0
86.3319 226.0
86.3988 238.0
86.4656 197.0
86.5324 200.0
86.5993 226.0
86.6661 219.0
86.733 207.0
86.7998 203.0
86.8667 210.0
86.9335 215.0
87.0004 208.0
87.0672 210.0
87.1341 209.0
87.2009 212.0
87.2677 200.0
87.3346 201.0
87.4014 188.0
87.4683 216.0
87.5351 186.0
87.602 207.0
87.6688 238.0
87.7357 199.0
87.8025 199.0
87.8693 209.0
87.9362 207.0
88.003 198.0
88.0699 191.0
88.1367 191.0
88.2036 206.0
88.2704 215.0
88.3373 199.0
88.4041 206.0
88.471 195.0
88.5378 186.0
88.6046 212.0
88.6715 190.0
88.7383 200.0
88.8052 175.0
88.872 203.0
88.9389 208.0
89.0057 182.0
89.0726 198.0
89.1394 173.0
89.2063 173.0
89.2731 195.0
89.3399 175.0
89.4068 175.0
89.4736 188.0
89.5405 207.0
89.6073 201.0
89.6742 196.0
89.741 186.0
89.8079 207.0
89.8747 168.0
89.9415 211.0