File: code/XRD_Analysis/External Sources/Fabian/20240402_RUB-50_calc_morematerial.xy
4.98146 1373.0
5.0483 1424.0
5.11515 1294.0
5.18199 1269.0
5.24884 1325.0
5.31568 1238.0
5.38253 1267.0
5.44937 1212.0
5.51622 1188.0
5.58306 1203.0
5.64991 1159.0
5.71675 1172.0
5.7836 1168.0
5.85044 1120.0
5.91729 1214.0
5.98413 1093.0
6.05098 1133.0
6.11782 1156.0
6.18467 1137.0
6.25151 1130.0
6.31836 1149.0
6.3852 1125.0
6.45205 1117.0
6.51889 1169.0
6.58574 1140.0
6.65258 1104.0
6.71943 1152.0
6.78627 1173.0
6.85312 1221.0
6.91996 1245.0
6.98681 1414.0
7.05365 1484.0
7.1205 1753.0
7.18734 2153.0
7.25419 2550.0
7.32103 2680.0
7.38788 2234.0
7.45472 1885.0
7.52157 1648.0
7.58841 1474.0
7.65526 1386.0
7.7221 1304.0
7.78895 1321.0
7.85579 1317.0
7.92264 1477.0
7.98948 1516.0
8.05633 1571.0
8.12317 1652.0
8.19002 1662.0
8.25686 1698.0
8.32371 1724.0
8.39055 1704.0
8.4574 1657.0
8.52424 1728.0
8.59109 1678.0
8.65793 1614.0
8.72478 1624.0
8.79162 1576.0
8.85847 1620.0
8.92532 1622.0
8.99216 1591.0
9.05901 1605.0
9.12585 1564.0
9.1927 1555.0
9.25954 1627.0
9.32639 1552.0
9.39323 1461.0
9.46008 1626.0
9.52692 1622.0
9.59377 1590.0
9.66061 1575.0
9.72746 1573.0
9.7943 1518.0
9.86115 1600.0
9.92799 1455.0
9.99484 1494.0
10.0617 1412.0
10.1285 1383.0
10.1954 1357.0
10.2622 1279.0
10.3291 1215.0
10.3959 1166.0
10.4628 1143.0
10.5296 1065.0
10.5964 963.0
10.6633 959.0
10.7301 924.0
10.797 908.0
10.8638 840.0
10.9307 839.0
10.9975 810.0
11.0644 737.0
11.1312 758.0
11.198 742.0
11.2649 740.0
11.3317 736.0
11.3986 698.0
11.4654 730.0
11.5323 675.0
11.5991 720.0
11.666 691.0
11.7328 664.0
11.7997 648.0
11.8665 674.0
11.9333 699.0
12.0002 711.0
12.067 675.0
12.1339 633.0
12.2007 639.0
12.2676 678.0
12.3344 675.0
12.4013 689.0
12.4681 630.0
12.5349 684.0
12.6018 709.0
12.6686 757.0
12.7355 830.0
12.8023 845.0
12.8692 828.0
12.936 824.0
13.0029 889.0
13.0697 834.0
13.1366 769.0
13.2034 763.0
13.2702 708.0
13.3371 729.0
13.4039 696.0
13.4708 725.0
13.5376 699.0
13.6045 716.0
13.6713 664.0
13.7382 731.0
13.805 708.0
13.8719 739.0
13.9387 770.0
14.0055 784.0
14.0724 844.0
14.1392 892.0
14.2061 926.0
14.2729 1125.0
14.3398 1236.0
14.4066 1479.0
14.4735 1851.0
14.5403 2035.0
14.6071 1989.0
14.674 1825.0
14.7408 1726.0
14.8077 1582.0
14.8745 1478.0
14.9414 1382.0
15.0082 1383.0
15.0751 1267.0
15.1419 1304.0
15.2088 1193.0
15.2756 1196.0
15.3424 1099.0
15.4093 1076.0
15.4761 1110.0
15.543 1112.0
15.6098 1083.0
15.6767 1082.0
15.7435 1023.0
15.8104 1090.0
15.8772 1083.0
15.944 1032.0
16.0109 1024.0
16.0777 1070.0
16.1446 1001.0
16.2114 992.0
16.2783 932.0
16.3451 957.0
16.412 922.0
16.4788 896.0
16.5457 870.0
16.6125 825.0
16.6793 756.0
16.7462 740.0
16.813 742.0
16.8799 692.0
16.9467 688.0
17.0136 725.0
17.0804 686.0
17.1473 678.0
17.2141 677.0
17.2809 632.0
17.3478 611.0
17.4146 645.0
17.4815 616.0
17.5483 664.0
17.6152 628.0
17.682 677.0
17.7489 669.0
17.8157 664.0
17.8826 706.0
17.9494 690.0
18.0162 725.0
18.0831 758.0
18.1499 740.0
18.2168 740.0
18.2836 774.0
18.3505 844.0
18.4173 818.0
18.4842 847.0
18.551 928.0
18.6179 904.0
18.6847 975.0
18.7515 986.0
18.8184 978.0
18.8852 1001.0
18.9521 1038.0
19.0189 1038.0
19.0858 1165.0
19.1526 1083.0
19.2195 1239.0
19.2863 1263.0
19.3531 1299.0
19.42 1225.0
19.4868 1220.0
19.5537 1243.0
19.6205 1336.0
19.6874 1270.0
19.7542 1326.0
19.8211 1380.0
19.8879 1413.0
19.9548 1392.0
20.0216 1370.0
20.0884 1471.0
20.1553 1403.0
20.2221 1428.0
20.289 1370.0
20.3558 1287.0
20.4227 1354.0
20.4895 1401.0
20.5564 1270.0
20.6232 1220.0
20.69 1206.0
20.7569 1196.0
20.8237 1180.0
20.8906 1135.0
20.9574 1125.0
21.0243 1152.0
21.0911 1099.0
21.158 1100.0
21.2248 1095.0
21.2917 1179.0
21.3585 1209.0
21.4253 1175.0
21.4922 1176.0
21.559 1340.0
21.6259 1403.0
21.6927 1443.0
21.7596 1666.0
21.8264 1741.0
21.8933 1735.0
21.9601 1840.0
22.0269 1960.0
22.0938 2142.0
22.1606 2164.0
22.2275 2331.0
22.2943 2447.0
22.3612 2452.0
22.428 2574.0
22.4949 2610.0
22.5617 2733.0
22.6286 2806.0
22.6954 2949.0
22.7622 2860.0
22.8291 2954.0
22.8959 2896.0
22.9628 2764.0
23.0296 2592.0
23.0965 2553.0
23.1633 2470.0
23.2302 2283.0
23.297 2169.0
23.3639 2203.0
23.4307 2008.0
23.4975 2020.0
23.5644 2024.0
23.6312 1993.0
23.6981 1880.0
23.7649 1913.0
23.8318 1845.0
23.8986 1814.0
23.9655 1732.0
24.0323 1688.0
24.0991 1696.0
24.166 1568.0
24.2328 1536.0
24.2997 1533.0
24.3665 1500.0
24.4334 1338.0
24.5002 1429.0
24.5671 1321.0
24.6339 1274.0
24.7008 1299.0
24.7676 1347.0
24.8344 1320.0
24.9013 1377.0
24.9681 1464.0
25.035 1668.0
25.1018 1721.0
25.1687 1868.0
25.2355 2121.0
25.3024 2136.0
25.3692 2082.0
25.436 1987.0
25.5029 1839.0
25.5697 1821.0
25.6366 1674.0
25.7034 1725.0
25.7703 1744.0
25.8371 1885.0
25.904 2006.0
25.9708 2287.0
26.0377 2666.0
26.1045 2914.0
26.1713 3580.0
26.2382 3942.0
26.305 3867.0
26.3719 3600.0
26.4387 3130.0
26.5056 2721.0
26.5724 2407.0
26.6393 2287.0
26.7061 2235.0
26.773 2225.0
26.8398 2163.0
26.9066 2266.0
26.9735 2277.0
27.0403 2169.0
27.1072 2108.0
27.174 2219.0
27.2409 2115.0
27.3077 1963.0
27.3746 1937.0
27.4414 1818.0
27.5082 1846.0
27.5751 1734.0
27.6419 1685.0
27.7088 1596.0
27.7756 1587.0
27.8425 1523.0
27.9093 1587.0
27.9762 1552.0
28.043 1428.0
28.1099 1478.0
28.1767 1488.0
28.2435 1408.0
28.3104 1402.0
28.3772 1412.0
28.4441 1333.0
28.5109 1330.0
28.5778 1302.0
28.6446 1291.0
28.7115 1222.0
28.7783 1168.0
28.8451 1242.0
28.912 1144.0
28.9788 1162.0
29.0457 1123.0
29.1125 1190.0
29.1794 1104.0
29.2462 1113.0
29.3131 1060.0
29.3799 1090.0
29.4468 1059.0
29.5136 1027.0
29.5804 1056.0
29.6473 984.0
29.7141 956.0
29.781 970.0
29.8478 885.0
29.9147 864.0
29.9815 859.0
30.0484 899.0
30.1152 831.0
30.182 832.0
30.2489 783.0
30.3157 800.0
30.3826 809.0
30.4494 781.0
30.5163 781.0
30.5831 855.0
30.65 799.0
30.7168 770.0
30.7837 710.0
30.8505 737.0
30.9173 695.0
30.9842 734.0
31.051 727.0
31.1179 710.0
31.1847 691.0
31.2516 681.0
31.3184 709.0
31.3853 683.0
31.4521 703.0
31.519 746.0
31.5858 742.0
31.6526 786.0
31.7195 826.0
31.7863 846.0
31.8532 869.0
31.92 865.0
31.9869 861.0
32.0537 840.0
32.1206 819.0
32.1874 806.0
32.2542 815.0
32.3211 803.0
32.3879 810.0
32.4548 848.0
32.5216 773.0
32.5885 759.0
32.6553 823.0
32.7222 831.0
32.789 800.0
32.8559 788.0
32.9227 774.0
32.9895 789.0
33.0564 831.0
33.1232 808.0
33.1901 800.0
33.2569 829.0
33.3238 767.0
33.3906 837.0
33.4575 969.0
33.5243 873.0
33.5911 918.0
33.658 879.0
33.7248 912.0
33.7917 922.0
33.8585 913.0
33.9254 828.0
33.9922 873.0
34.0591 760.0
34.1259 809.0
34.1928 792.0
34.2596 774.0
34.3264 805.0
34.3933 691.0
34.4601 814.0
34.527 729.0
34.5938 695.0
34.6607 693.0
34.7275 740.0
34.7944 737.0
34.8612 707.0
34.928 729.0
34.9949 717.0
35.0617 691.0
35.1286 638.0
35.1954 661.0
35.2623 660.0
35.3291 651.0
35.396 644.0
35.4628 647.0
35.5297 635.0
35.5965 591.0
35.6633 584.0
35.7302 586.0
35.797 565.0
35.8639 570.0
35.9307 575.0
35.9976 532.0
36.0644 547.0
36.1313 560.0
36.1981 531.0
36.265 537.0
36.3318 548.0
36.3986 538.0
36.4655 551.0
36.5323 558.0
36.5992 590.0
36.666 591.0
36.7329 618.0
36.7997 589.0
36.8666 542.0
36.9334 567.0
37.0002 565.0
37.0671 566.0
37.1339 536.0
37.2008 521.0
37.2676 520.0
37.3345 507.0
37.4013 598.0
37.4682 542.0
37.535 568.0
37.6019 538.0
37.6687 552.0
37.7355 541.0
37.8024 521.0
37.8692 575.0
37.9361 581.0
38.0029 598.0
38.0698 641.0
38.1366 635.0
38.2035 610.0
38.2703 663.0
38.3371 629.0
38.404 589.0
38.4708 589.0
38.5377 557.0
38.6045 518.0
38.6714 501.0
38.7382 483.0
38.8051 482.0
38.8719 554.0
38.9388 487.0
39.0056 493.0
39.0724 465.0
39.1393 473.0
39.2061 470.0
39.273 465.0
39.3398 501.0
39.4067 449.0
39.4735 422.0
39.5404 504.0
39.6072 462.0
39.6741 440.0
39.7409 450.0
39.8077 482.0
39.8746 431.0
39.9414 461.0
40.0083 444.0
40.0751 457.0
40.142 429.0
40.2088 450.0
40.2757 458.0
40.3425 477.0
40.4093 467.0
40.4762 511.0
40.543 472.0
40.6099 457.0
40.6767 469.0
40.7436 436.0
40.8104 471.0
40.8773 446.0
40.9441 511.0
41.011 413.0
41.0778 481.0
41.1446 441.0
41.2115 461.0
41.2783 507.0
41.3452 430.0
41.412 467.0
41.4789 429.0
41.5457 454.0
41.6126 442.0
41.6794 444.0
41.7462 438.0
41.8131 446.0
41.8799 464.0
41.9468 450.0
42.0136 430.0
42.0805 471.0
42.1473 449.0
42.2142 435.0
42.281 441.0
42.3479 428.0
42.4147 446.0
42.4815 442.0
42.5484 477.0
42.6152 457.0
42.6821 410.0
42.7489 440.0
42.8158 467.0
42.8826 446.0
42.9495 470.0
43.0163 464.0
43.0831 435.0
43.15 412.0
43.2168 422.0
43.2837 461.0
43.3505 451.0
43.4174 455.0
43.4842 486.0
43.5511 479.0
43.6179 401.0
43.6848 428.0
43.7516 453.0
43.8184 480.0
43.8853 426.0
43.9521 448.0
44.019 444.0
44.0858 453.0
44.1527 494.0
44.2195 466.0
44.2864 429.0
44.3532 480.0
44.4201 413.0
44.4869 435.0
44.5537 423.0
44.6206 463.0
44.6874 492.0
44.7543 495.0
44.8211 474.0
44.888 543.0
44.9548 504.0
45.0217 465.0
45.0885 507.0
45.1553 508.0
45.2222 521.0
45.289 519.0
45.3559 525.0
45.4227 464.0
45.4896 513.0
45.5564 492.0
45.6233 508.0
45.6901 494.0
45.757 521.0
45.8238 447.0
45.8906 517.0
45.9575 485.0
46.0243 519.0
46.0912 516.0
46.158 532.0
46.2249 572.0
46.2917 507.0
46.3586 564.0
46.4254 548.0
46.4922 584.0
46.5591 594.0
46.6259 591.0
46.6928 595.0
46.7596 563.0
46.8265 582.0
46.8933 557.0
46.9602 574.0
47.027 563.0
47.0939 529.0
47.1607 475.0
47.2275 460.0
47.2944 457.0
47.3612 503.0
47.4281 464.0
47.4949 464.0
47.5618 446.0
47.6286 486.0
47.6955 432.0
47.7623 450.0
47.8291 415.0
47.896 446.0
47.9628 420.0
48.0297 461.0
48.0965 447.0
48.1634 476.0
48.2302 487.0
48.2971 498.0
48.3639 461.0
48.4308 511.0
48.4976 505.0
48.5644 504.0
48.6313 534.0
48.6981 510.0
48.765 549.0
48.8318 542.0
48.8987 534.0
48.9655 486.0
49.0324 540.0
49.0992 536.0
49.1661 517.0
49.2329 555.0
49.2997 529.0
49.3666 507.0
49.4334 505.0
49.5003 556.0
49.5671 520.0
49.634 475.0
49.7008 500.0
49.7677 473.0
49.8345 489.0
49.9013 492.0
49.9682 507.0
50.035 456.0
50.1019 514.0
50.1687 427.0
50.2356 411.0
50.3024 448.0
50.3693 456.0
50.4361 442.0
50.503 427.0
50.5698 463.0
50.6366 445.0
50.7035 448.0
50.7703 466.0
50.8372 447.0
50.904 519.0
50.9709 482.0
51.0377 438.0
51.1046 463.0
51.1714 439.0
51.2382 440.0
51.3051 462.0
51.3719 458.0
51.4388 520.0
51.5056 487.0
51.5725 505.0
51.6393 487.0
51.7062 449.0
51.773 448.0
51.8399 522.0
51.9067 495.0
51.9735 464.0
52.0404 507.0
52.1072 477.0
52.1741 489.0
52.2409 500.0
52.3078 482.0
52.3746 496.0
52.4415 505.0
52.5083 551.0
52.5751 528.0
52.642 509.0
52.7088 485.0
52.7757 458.0
52.8425 487.0
52.9094 445.0
52.9762 446.0
53.0431 434.0
53.1099 400.0
53.1768 414.0
53.2436 428.0
53.3104 445.0
53.3773 450.0
53.4441 388.0
53.511 399.0
53.5778 406.0
53.6447 392.0
53.7115 401.0
53.7784 381.0
53.8452 450.0
53.9121 386.0
53.9789 380.0
54.0457 434.0
54.1126 408.0
54.1794 393.0
54.2463 384.0
54.3131 426.0
54.38 384.0
54.4468 443.0
54.5137 383.0
54.5805 389.0
54.6473 385.0
54.7142 424.0
54.781 370.0
54.8479 370.0
54.9147 362.0
54.9816 367.0
55.0484 345.0
55.1153 356.0
55.1821 342.0
55.249 346.0
55.3158 373.0
55.3826 365.0
55.4495 380.0
55.5163 339.0
55.5832 379.0
55.65 376.0
55.7169 358.0
55.7837 402.0
55.8506 364.0
55.9174 377.0
55.9842 380.0
56.0511 375.0
56.1179 377.0
56.1848 361.0
56.2516 419.0
56.3185 426.0
56.3853 428.0
56.4522 412.0
56.519 361.0
56.5859 454.0
56.6527 404.0
56.7195 419.0
56.7864 413.0
56.8532 384.0
56.9201 404.0
56.9869 412.0
57.0538 411.0
57.1206 424.0
57.1875 455.0
57.2543 385.0
57.3212 372.0
57.388 385.0
57.4548 414.0
57.5217 372.0
57.5885 384.0
57.6554 372.0
57.7222 402.0
57.7891 346.0
57.8559 377.0
57.9228 367.0
57.9896 370.0
58.0564 402.0
58.1233 392.0
58.1901 363.0
58.257 393.0
58.3238 381.0
58.3907 345.0
58.4575 371.0
58.5244 368.0
58.5912 370.0
58.6581 395.0
58.7249 389.0
58.7917 406.0
58.8586 352.0
58.9254 377.0
58.9923 370.0
59.0591 398.0
59.126 399.0
59.1928 382.0
59.2597 379.0
59.3265 404.0
59.3933 357.0
59.4602 398.0
59.527 351.0
59.5939 370.0
59.6607 352.0
59.7276 375.0
59.7944 365.0
59.8613 408.0
59.9281 379.0
59.995 389.0
60.0618 409.0
60.1286 429.0
60.1955 392.0
60.2623 395.0
60.3292 402.0
60.396 425.0
60.4629 395.0
60.5297 384.0
60.5966 389.0
60.6634 358.0
60.7302 418.0
60.7971 394.0
60.8639 387.0
60.9308 358.0
60.9976 376.0
61.0645 341.0
61.1313 381.0
61.1982 384.0
61.265 403.0
61.3319 410.0
61.3987 365.0
61.4655 380.0
61.5324 348.0
61.5992 377.0
61.6661 391.0
61.7329 380.0
61.7998 420.0
61.8666 400.0
61.9335 383.0
62.0003 423.0
62.0672 420.0
62.134 408.0
62.2008 397.0
62.2677 364.0
62.3345 391.0
62.4014 413.0
62.4682 422.0
62.5351 392.0
62.6019 408.0
62.6688 423.0
62.7356 422.0
62.8024 408.0
62.8693 401.0
62.9361 389.0
63.003 353.0
63.0698 393.0
63.1367 382.0
63.2035 399.0
63.2704 364.0
63.3372 387.0
63.4041 411.0
63.4709 426.0
63.5377 425.0
63.6046 364.0
63.6714 406.0
63.7383 354.0
63.8051 403.0
63.872 375.0
63.9388 432.0
64.0057 395.0
64.0725 375.0
64.1393 381.0
64.2062 360.0
64.273 407.0
64.3399 387.0
64.4067 399.0
64.4736 453.0
64.5404 391.0
64.6073 395.0
64.6741 413.0
64.741 458.0
64.8078 385.0
64.8746 455.0
64.9415 443.0
65.0083 428.0
65.0752 450.0
65.142 447.0
65.2089 450.0
65.2757 449.0
65.3426 454.0
65.4094 458.0
65.4762 465.0
65.5431 449.0
65.6099 459.0
65.6768 519.0
65.7436 503.0
65.8105 531.0
65.8773 548.0
65.9442 537.0
66.011 533.0
66.0779 517.0
66.1447 520.0
66.2115 510.0
66.2784 518.0
66.3452 488.0
66.4121 470.0
66.4789 479.0
66.5458 482.0
66.6126 459.0
66.6795 432.0
66.7463 476.0
66.8132 383.0
66.88 458.0
66.9468 445.0
67.0137 444.0
67.0805 424.0
67.1474 435.0
67.2142 429.0
67.2811 400.0
67.3479 407.0
67.4148 388.0
67.4816 366.0
67.5484 419.0
67.6153 392.0
67.6821 382.0
67.749 360.0
67.8158 380.0
67.8827 365.0
67.9495 389.0
68.0164 362.0
68.0832 429.0
68.1501 369.0
68.2169 360.0
68.2837 355.0
68.3506 357.0
68.4174 399.0
68.4843 367.0
68.5511 361.0
68.618 319.0
68.6848 337.0
68.7517 411.0
68.8185 369.0
68.8853 368.0
68.9522 348.0
69.019 364.0
69.0859 348.0
69.1527 328.0
69.2196 321.0
69.2864 383.0
69.3533 316.0
69.4201 332.0
69.487 334.0
69.5538 372.0
69.6206 333.0
69.6875 367.0
69.7543 306.0
69.8212 347.0
69.888 338.0
69.9549 337.0
70.0217 360.0
70.0886 353.0
70.1554 370.0
70.2222 330.0
70.2891 342.0
70.3559 372.0
70.4228 385.0
70.4896 411.0
70.5565 386.0
70.6233 362.0
70.6902 316.0
70.757 336.0
70.8239 365.0
70.8907 358.0
70.9575 315.0
71.0244 382.0
71.0912 368.0
71.1581 313.0
71.2249 354.0
71.2918 317.0
71.3586 367.0
71.4255 365.0
71.4923 370.0
71.5592 356.0
71.626 352.0
71.6928 340.0
71.7597 340.0
71.8265 336.0
71.8934 316.0
71.9602 324.0
72.0271 348.0
72.0939 342.0
72.1608 364.0
72.2276 329.0
72.2944 336.0
72.3613 332.0
72.4281 331.0
72.495 347.0
72.5618 309.0
72.6287 340.0
72.6955 348.0
72.7624 354.0
72.8292 334.0
72.8961 381.0
72.9629 311.0
73.0297 366.0
73.0966 341.0
73.1634 364.0
73.2303 386.0
73.2971 333.0
73.364 353.0
73.4308 367.0
73.4977 360.0
73.5645 364.0
73.6313 383.0
73.6982 349.0
73.765 378.0
73.8319 361.0
73.8987 361.0
73.9656 337.0
74.0324 370.0
74.0993 295.0
74.1661 364.0
74.233 345.0
74.2998 389.0
74.3666 366.0
74.4335 354.0
74.5003 382.0
74.5672 369.0
74.634 356.0
74.7009 329.0
74.7677 353.0
74.8346 335.0
74.9014 353.0
74.9683 305.0
75.0351 333.0
75.1019 321.0
75.1688 304.0
75.2356 331.0
75.3025 346.0
75.3693 326.0
75.4362 346.0
75.503 309.0
75.5699 305.0
75.6367 326.0
75.7035 298.0
75.7704 328.0
75.8372 347.0
75.9041 276.0
75.9709 328.0
76.0378 344.0
76.1046 321.0
76.1715 314.0
76.2383 317.0
76.3052 321.0
76.372 333.0
76.4388 329.0
76.5057 298.0
76.5725 365.0
76.6394 330.0
76.7062 298.0
76.7731 314.0
76.8399 358.0
76.9068 325.0
76.9736 331.0
77.0404 329.0
77.1073 349.0
77.1741 363.0
77.241 314.0
77.3078 310.0
77.3747 337.0
77.4415 326.0
77.5084 347.0
77.5752 337.0
77.6421 365.0
77.7089 339.0
77.7757 339.0
77.8426 352.0
77.9094 341.0
77.9763 348.0
78.0431 355.0
78.11 323.0
78.1768 349.0
78.2437 337.0
78.3105 366.0
78.3773 339.0
78.4442 338.0
78.511 370.0
78.5779 338.0
78.6447 324.0
78.7116 360.0
78.7784 331.0
78.8453 362.0
78.9121 342.0
78.979 384.0
79.0458 344.0
79.1126 318.0
79.1795 349.0
79.2463 304.0
79.3132 345.0
79.38 351.0
79.4469 376.0
79.5137 337.0
79.5806 321.0
79.6474 315.0
79.7143 379.0
79.7811 328.0
79.8479 340.0
79.9148 307.0
79.9816 321.0
80.0485 358.0
80.1153 305.0
80.1822 348.0
80.249 329.0
80.3159 307.0
80.3827 339.0
80.4495 299.0
80.5164 325.0
80.5832 285.0
80.6501 285.0
80.7169 306.0
80.7838 310.0
80.8506 280.0
80.9175 302.0
80.9843 301.0
81.0512 323.0
81.118 298.0
81.1848 318.0
81.2517 284.0
81.3185 308.0
81.3854 300.0
81.4522 261.0
81.5191 259.0
81.5859 298.0
81.6528 275.0
81.7196 292.0
81.7864 270.0
81.8533 260.0
81.9201 256.0
81.987 277.0
82.0538 262.0
82.1207 292.0
82.1875 251.0
82.2544 262.0
82.3212 259.0
82.3881 255.0
82.4549 244.0
82.5217 252.0
82.5886 263.0
82.6554 219.0
82.7223 271.0
82.7891 264.0
82.856 250.0
82.9228 268.0
82.9897 269.0
83.0565 257.0
83.1233 258.0
83.1902 276.0
83.257 247.0
83.3239 257.0
83.3907 260.0
83.4576 251.0
83.5244 253.0
83.5913 245.0
83.6581 240.0
83.725 248.0
83.7918 288.0
83.8586 268.0
83.9255 246.0
83.9923 256.0
84.0592 217.0
84.126 238.0
84.1929 237.0
84.2597 239.0
84.3266 206.0
84.3934 242.0
84.4603 253.0
84.5271 199.0
84.5939 242.0
84.6608 243.0
84.7276 221.0
84.7945 242.0
84.8613 211.0
84.9282 207.0
84.995 223.0
85.0619 222.0
85.1287 195.0
85.1955 183.0
85.2624 215.0
85.3292 203.0
85.3961 247.0
85.4629 217.0
85.5298 200.0
85.5966 211.0
85.6635 196.0
85.7303 227.0
85.7972 198.0
85.864 203.0
85.9308 188.0
85.9977 231.0
86.0645 197.0
86.1314 196.0
86.1982 213.0
86.2651 203.0
86.3319 215.0
86.3988 219.0
86.4656 210.0
86.5324 219.0
86.5993 197.0
86.6661 196.0
86.733 223.0
86.7998 198.0
86.8667 224.0
86.9335 213.0
87.0004 210.0
87.0672 209.0
87.1341 200.0
87.2009 192.0
87.2677 209.0
87.3346 217.0
87.4014 196.0
87.4683 174.0
87.5351 192.0
87.602 208.0
87.6688 207.0
87.7357 209.0
87.8025 184.0
87.8693 199.0
87.9362 200.0
88.003 203.0
88.0699 189.0
88.1367 198.0
88.2036 182.0
88.2704 198.0
88.3373 207.0
88.4041 195.0
88.471 180.0
88.5378 203.0
88.6046 191.0
88.6715 174.0
88.7383 213.0
88.8052 209.0
88.872 177.0
88.9389 176.0
89.0057 199.0
89.0726 200.0
89.1394 183.0
89.2063 163.0
89.2731 198.0
89.3399 183.0
89.4068 169.0
89.4736 196.0
89.5405 186.0
89.6073 188.0
89.6742 204.0
89.741 210.0
89.8079 232.0
89.8747 195.0
89.9415 183.0