File: code/XRD_Analysis/External Sources/Fabian/20240328_ZSM-5.xy
4.98146 1042.0
5.0483 991.0
5.11515 973.0
5.18199 942.0
5.24884 1000.0
5.31568 907.0
5.38253 941.0
5.44937 854.0
5.51622 861.0
5.58306 881.0
5.64991 854.0
5.71675 886.0
5.7836 872.0
5.85044 813.0
5.91729 852.0
5.98413 837.0
6.05098 801.0
6.11782 750.0
6.18467 742.0
6.25151 830.0
6.31836 783.0
6.3852 776.0
6.45205 735.0
6.51889 743.0
6.58574 759.0
6.65258 723.0
6.71943 717.0
6.78627 771.0
6.85312 699.0
6.91996 688.0
6.98681 705.0
7.05365 695.0
7.1205 752.0
7.18734 715.0
7.25419 726.0
7.32103 730.0
7.38788 734.0
7.45472 761.0
7.52157 786.0
7.58841 886.0
7.65526 985.0
7.7221 1259.0
7.78895 1765.0
7.85579 2821.0
7.92264 5289.0
7.98948 11157.0
8.05633 16503.0
8.12317 7231.0
8.19002 2551.0
8.25686 1307.0
8.32371 970.0
8.39055 918.0
8.4574 904.0
8.52424 946.0
8.59109 992.0
8.65793 1220.0
8.72478 1875.0
8.79162 3282.0
8.85847 6409.0
8.92532 8707.0
8.99216 7818.0
9.05901 4285.0
9.12585 2950.0
9.1927 3113.0
9.25954 2242.0
9.32639 1355.0
9.39323 922.0
9.46008 739.0
9.52692 734.0
9.59377 662.0
9.66061 586.0
9.72746 570.0
9.7943 615.0
9.86115 572.0
9.92799 691.0
9.99484 654.0
10.0617 584.0
10.1285 512.0
10.1954 509.0
10.2622 491.0
10.3291 511.0
10.3959 564.0
10.4628 459.0
10.5296 485.0
10.5964 470.0
10.6633 474.0
10.7301 497.0
10.797 461.0
10.8638 493.0
10.9307 529.0
10.9975 531.0
11.0644 555.0
11.1312 558.0
11.198 479.0
11.2649 460.0
11.3317 453.0
11.3986 410.0
11.4654 449.0
11.5323 434.0
11.5991 432.0
11.666 440.0
11.7328 453.0
11.7997 408.0
11.8665 503.0
11.9333 564.0
12.0002 623.0
12.067 559.0
12.1339 475.0
12.2007 398.0
12.2676 423.0
12.3344 410.0
12.4013 400.0
12.4681 386.0
12.5349 456.0
12.6018 475.0
12.6686 450.0
12.7355 379.0
12.8023 387.0
12.8692 392.0
12.936 394.0
13.0029 403.0
13.0697 424.0
13.1366 523.0
13.2034 755.0
13.2702 1178.0
13.3371 1685.0
13.4039 822.0
13.4708 543.0
13.5376 474.0
13.6045 449.0
13.6713 455.0
13.7382 532.0
13.805 573.0
13.8719 753.0
13.9387 1128.0
14.0055 1781.0
14.0724 1861.0
14.1392 1010.0
14.2061 643.0
14.2729 551.0
14.3398 431.0
14.4066 432.0
14.4735 410.0
14.5403 526.0
14.6071 584.0
14.674 788.0
14.7408 1181.0
14.8077 2117.0
14.8745 3433.0
14.9414 2410.0
15.0082 1728.0
15.0751 1273.0
15.1419 824.0
15.2088 575.0
15.2756 509.0
15.3424 581.0
15.4093 635.0
15.4761 869.0
15.543 1226.0
15.6098 1531.0
15.6767 1437.0
15.7435 1170.0
15.8104 954.0
15.8772 1067.0
15.944 1772.0
16.0109 2462.0
16.0777 1598.0
16.1446 1072.0
16.2114 633.0
16.2783 471.0
16.3451 460.0
16.412 464.0
16.4788 518.0
16.5457 686.0
16.6125 788.0
16.6793 757.0
16.7462 680.0
16.813 518.0
16.8799 411.0
16.9467 415.0
17.0136 382.0
17.0804 420.0
17.1473 414.0
17.2141 476.0
17.2809 552.0
17.3478 714.0
17.4146 669.0
17.4815 531.0
17.5483 547.0
17.6152 592.0
17.682 1066.0
17.7489 1407.0
17.8157 1062.0
17.8826 1293.0
17.9494 1495.0
18.0162 801.0
18.0831 495.0
18.1499 504.0
18.2168 511.0
18.2836 533.0
18.3505 445.0
18.4173 422.0
18.4842 419.0
18.551 415.0
18.6179 402.0
18.6847 408.0
18.7515 428.0
18.8184 426.0
18.8852 528.0
18.9521 479.0
19.0189 472.0
19.0858 485.0
19.1526 514.0
19.2195 705.0
19.2863 1050.0
19.3531 1274.0
19.42 946.0
19.4868 643.0
19.5537 582.0
19.6205 531.0
19.6874 520.0
19.7542 550.0
19.8211 544.0
19.8879 607.0
19.9548 605.0
20.0216 613.0
20.0884 634.0
20.1553 557.0
20.2221 611.0
20.289 691.0
20.3558 954.0
20.4227 1404.0
20.4895 1784.0
20.5564 1188.0
20.6232 859.0
20.69 701.0
20.7569 907.0
20.8237 1204.0
20.8906 1640.0
20.9574 1991.0
21.0243 1666.0
21.0911 1010.0
21.158 713.0
21.2248 573.0
21.2917 604.0
21.3585 576.0
21.4253 556.0
21.4922 564.0
21.559 588.0
21.6259 607.0
21.6927 643.0
21.7596 716.0
21.8264 884.0
21.8933 997.0
21.9601 831.0
22.0269 729.0
22.0938 838.0
22.1606 1022.0
22.2275 1251.0
22.2943 1304.0
22.3612 1119.0
22.428 923.0
22.4949 826.0
22.5617 863.0
22.6286 853.0
22.6954 914.0
22.7622 926.0
22.8291 1029.0
22.8959 1353.0
22.9628 2216.0
23.0296 4282.0
23.0965 8224.0
23.1633 14533.0
23.2302 11525.0
23.297 7670.0
23.3639 7950.0
23.4307 7755.0
23.4975 5802.0
23.5644 3432.0
23.6312 2490.0
23.6981 2874.0
23.7649 3966.0
23.8318 4497.0
23.8986 4993.0
23.9655 6191.0
24.0323 8590.0
24.0991 6181.0
24.166 2945.0
24.2328 2129.0
24.2997 2070.0
24.3665 2344.0
24.4334 2825.0
24.5002 2627.0
24.5671 2442.0
24.6339 2687.0
24.7008 2175.0
24.7676 1471.0
24.8344 1234.0
24.9013 1058.0
24.9681 823.0
25.035 653.0
25.1018 569.0
25.1687 604.0
25.2355 568.0
25.3024 606.0
25.3692 576.0
25.436 674.0
25.5029 684.0
25.5697 1050.0
25.6366 1170.0
25.7034 1207.0
25.7703 1270.0
25.8371 1286.0
25.904 1550.0
25.9708 1651.0
26.0377 1590.0
26.1045 1427.0
26.1713 985.0
26.2382 971.0
26.305 1110.0
26.3719 959.0
26.4387 883.0
26.5056 846.0
26.5724 1121.0
26.6393 1396.0
26.7061 1477.0
26.773 1162.0
26.8398 1133.0
26.9066 1291.0
26.9735 1731.0
27.0403 1855.0
27.1072 1917.0
27.174 1319.0
27.2409 908.0
27.3077 770.0
27.3746 813.0
27.4414 972.0
27.5082 1062.0
27.5751 915.0
27.6419 713.0
27.7088 713.0
27.7756 663.0
27.8425 579.0
27.9093 504.0
27.9762 509.0
28.043 547.0
28.1099 597.0
28.1767 689.0
28.2435 753.0
28.3104 602.0
28.3772 600.0
28.4441 727.0
28.5109 736.0
28.5778 704.0
28.6446 703.0
28.7115 643.0
28.7783 511.0
28.8451 523.0
28.912 518.0
28.9788 526.0
29.0457 531.0
29.1125 613.0
29.1794 772.0
29.2462 1106.0
29.3131 1411.0
29.3799 1512.0
29.4468 1510.0
29.5136 1465.0
29.5804 1079.0
29.6473 725.0
29.7141 721.0
29.781 810.0
29.8478 1309.0
29.9147 2094.0
29.9815 3229.0
30.0484 2807.0
30.1152 1810.0
30.182 1548.0
30.2489 1697.0
30.3157 1758.0
30.3826 1508.0
30.4494 1113.0
30.5163 800.0
30.5831 771.0
30.65 720.0
30.7168 658.0
30.7837 533.0
30.8505 513.0
30.9173 478.0
30.9842 462.0
31.051 409.0
31.1179 497.0
31.1847 568.0
31.2516 768.0
31.3184 864.0
31.3853 824.0
31.4521 728.0
31.519 603.0
31.5858 569.0
31.6526 534.0
31.7195 469.0
31.7863 505.0
31.8532 428.0
31.92 465.0
31.9869 408.0
32.0537 412.0
32.1206 439.0
32.1874 534.0
32.2542 588.0
32.3211 527.0
32.3879 502.0
32.4548 466.0
32.5216 488.0
32.5885 471.0
32.6553 547.0
32.7222 656.0
32.789 852.0
32.8559 932.0
32.9227 876.0
32.9895 729.0
33.0564 634.0
33.1232 445.0
33.1901 466.0
33.2569 427.0
33.3238 419.0
33.3906 487.0
33.4575 568.0
33.5243 571.0
33.5911 537.0
33.658 480.0
33.7248 506.0
33.7917 599.0
33.8585 629.0
33.9254 538.0
33.9922 475.0
34.0591 464.0
34.1259 466.0
34.1928 472.0
34.2596 501.0
34.3264 667.0
34.3933 794.0
34.4601 850.0
34.527 876.0
34.5938 774.0
34.6607 729.0
34.7275 716.0
34.7944 705.0
34.8612 645.0
34.928 583.0
34.9949 604.0
35.0617 598.0
35.1286 657.0
35.1954 789.0
35.2623 743.0
35.3291 639.0
35.396 436.0
35.4628 409.0
35.5297 436.0
35.5965 474.0
35.6633 588.0
35.7302 820.0
35.797 818.0
35.8639 759.0
35.9307 547.0
35.9976 511.0
36.0644 680.0
36.1313 948.0
36.1981 1177.0
36.265 990.0
36.3318 938.0
36.3986 848.0
36.4655 713.0
36.5323 590.0
36.5992 520.0
36.666 557.0
36.7329 539.0
36.7997 542.0
36.8666 490.0
36.9334 512.0
37.0002 509.0
37.0671 449.0
37.1339 539.0
37.2008 572.0
37.2676 829.0
37.3345 826.0
37.4013 711.0
37.4682 782.0
37.535 804.0
37.6019 852.0
37.6687 820.0
37.7355 814.0
37.8024 717.0
37.8692 612.0
37.9361 505.0
38.0029 474.0
38.0698 393.0
38.1366 358.0
38.2035 364.0
38.2703 383.0
38.3371 392.0
38.404 373.0
38.4708 361.0
38.5377 357.0
38.6045 355.0
38.6714 401.0
38.7382 440.0
38.8051 419.0
38.8719 426.0
38.9388 432.0
39.0056 388.0
39.0724 361.0
39.1393 336.0
39.2061 351.0
39.273 362.0
39.3398 409.0
39.4067 385.0
39.4735 360.0
39.5404 355.0
39.6072 353.0
39.6741 361.0
39.7409 348.0
39.8077 320.0
39.8746 344.0
39.9414 333.0
40.0083 290.0
40.0751 284.0
40.142 273.0
40.2088 254.0
40.2757 286.0
40.3425 300.0
40.4093 324.0
40.4762 378.0
40.543 341.0
40.6099 368.0
40.6767 371.0
40.7436 364.0
40.8104 366.0
40.8773 404.0
40.9441 389.0
41.011 419.0
41.0778 483.0
41.1446 482.0
41.2115 463.0
41.2783 406.0
41.3452 388.0
41.412 434.0
41.4789 496.0
41.5457 466.0
41.6126 459.0
41.6794 466.0
41.7462 408.0
41.8131 412.0
41.8799 378.0
41.9468 356.0
42.0136 337.0
42.0805 314.0
42.1473 289.0
42.2142 322.0
42.281 284.0
42.3479 307.0
42.4147 326.0
42.4815 360.0
42.5484 364.0
42.6152 377.0
42.6821 418.0
42.7489 354.0
42.8158 338.0
42.8826 366.0
42.9495 352.0
43.0163 397.0
43.0831 430.0
43.15 422.0
43.2168 442.0
43.2837 479.0
43.3505 445.0
43.4174 447.0
43.4842 460.0
43.5511 455.0
43.6179 528.0
43.6848 517.0
43.7516 491.0
43.8184 442.0
43.8853 363.0
43.9521 412.0
44.019 348.0
44.0858 377.0
44.1527 358.0
44.2195 341.0
44.2864 330.0
44.3532 344.0
44.4201 350.0
44.4869 356.0
44.5537 332.0
44.6206 308.0
44.6874 379.0
44.7543 441.0
44.8211 419.0
44.888 494.0
44.9548 623.0
45.0217 966.0
45.0885 1631.0
45.1553 1958.0
45.2222 1661.0
45.289 1362.0
45.3559 1048.0
45.4227 1001.0
45.4896 1109.0
45.5564 1240.0
45.6233 1575.0
45.6901 1605.0
45.757 1279.0
45.8238 1062.0
45.8906 726.0
45.9575 580.0
46.0243 536.0
46.0912 466.0
46.158 472.0
46.2249 448.0
46.2917 453.0
46.3586 471.0
46.4254 510.0
46.4922 634.0
46.5591 678.0
46.6259 667.0
46.6928 606.0
46.7596 607.0
46.8265 502.0
46.8933 430.0
46.9602 381.0
47.027 299.0
47.0939 313.0
47.1607 384.0
47.2275 414.0
47.2944 614.0
47.3612 633.0
47.4281 615.0
47.4949 770.0
47.5618 698.0
47.6286 696.0
47.6955 632.0
47.7623 600.0
47.8291 477.0
47.896 429.0
47.9628 407.0
48.0297 287.0
48.0965 310.0
48.1634 301.0
48.2302 315.0
48.2971 320.0
48.3639 353.0
48.4308 435.0
48.4976 478.0
48.5644 664.0
48.6313 649.0
48.6981 599.0
48.765 548.0
48.8318 483.0
48.8987 551.0
48.9655 595.0
49.0324 536.0
49.0992 428.0
49.1661 395.0
49.2329 324.0
49.2997 301.0
49.3666 288.0
49.4334 373.0
49.5003 365.0
49.5671 398.0
49.634 416.0
49.7008 398.0
49.7677 397.0
49.8345 411.0
49.9013 424.0
49.9682 448.0
50.035 419.0
50.1019 397.0
50.1687 403.0
50.2356 329.0
50.3024 358.0
50.3693 348.0
50.4361 335.0
50.503 328.0
50.5698 337.0
50.6366 348.0
50.7035 292.0
50.7703 311.0
50.8372 288.0
50.904 306.0
50.9709 325.0
51.0377 362.0
51.1046 355.0
51.1714 392.0
51.2382 352.0
51.3051 364.0
51.3719 376.0
51.4388 400.0
51.5056 394.0
51.5725 373.0
51.6393 411.0
51.7062 465.0
51.773 495.0
51.8399 587.0
51.9067 517.0
51.9735 520.0
52.0404 475.0
52.1072 487.0
52.1741 475.0
52.2409 489.0
52.3078 492.0
52.3746 496.0
52.4415 500.0
52.5083 419.0
52.5751 394.0
52.642 387.0
52.7088 282.0
52.7757 332.0
52.8425 340.0
52.9094 295.0
52.9762 315.0
53.0431 324.0
53.1099 330.0
53.1768 346.0
53.2436 326.0
53.3104 387.0
53.3773 365.0
53.4441 395.0
53.511 337.0
53.5778 378.0
53.6447 406.0
53.7115 391.0
53.7784 424.0
53.8452 381.0
53.9121 404.0
53.9789 331.0
54.0457 322.0
54.1126 335.0
54.1794 287.0
54.2463 325.0
54.3131 345.0
54.38 325.0
54.4468 337.0
54.5137 325.0
54.5805 318.0
54.6473 335.0
54.7142 342.0
54.781 392.0
54.8479 507.0
54.9147 691.0
54.9816 744.0
55.0484 917.0
55.1153 954.0
55.1821 922.0
55.249 948.0
55.3158 781.0
55.3826 649.0
55.4495 603.0
55.5163 549.0
55.5832 482.0
55.65 512.0
55.7169 558.0
55.7837 573.0
55.8506 623.0
55.9174 596.0
55.9842 487.0
56.0511 491.0
56.1179 458.0
56.1848 403.0
56.2516 371.0
56.3185 356.0
56.3853 365.0
56.4522 370.0
56.519 397.0
56.5859 411.0
56.6527 496.0
56.7195 445.0
56.7864 433.0
56.8532 385.0
56.9201 356.0
56.9869 341.0
57.0538 345.0
57.1206 392.0
57.1875 387.0
57.2543 450.0
57.3212 507.0
57.388 458.0
57.4548 481.0
57.5217 384.0
57.5885 392.0
57.6554 322.0
57.7222 337.0
57.7891 322.0
57.8559 331.0
57.9228 338.0
57.9896 328.0
58.0564 326.0
58.1233 314.0
58.1901 301.0
58.257 305.0
58.3238 298.0
58.3907 308.0
58.4575 306.0
58.5244 347.0
58.5912 310.0
58.6581 309.0
58.7249 342.0
58.7917 348.0
58.8586 347.0
58.9254 350.0
58.9923 388.0
59.0591 432.0
59.126 450.0
59.1928 454.0
59.2597 471.0
59.3265 394.0
59.3933 383.0
59.4602 379.0
59.527 370.0
59.5939 303.0
59.6607 299.0
59.7276 320.0
59.7944 291.0
59.8613 304.0
59.9281 348.0
59.995 290.0
60.0618 321.0
60.1286 363.0
60.1955 322.0
60.2623 339.0
60.3292 342.0
60.396 363.0
60.4629 358.0
60.5297 334.0
60.5966 322.0
60.6634 320.0
60.7302 314.0
60.7971 339.0
60.8639 289.0
60.9308 366.0
60.9976 397.0
61.0645 411.0
61.1313 387.0
61.1982 345.0
61.265 330.0
61.3319 319.0
61.3987 302.0
61.4655 291.0
61.5324 325.0
61.5992 358.0
61.6661 333.0
61.7329 375.0
61.7998 329.0
61.8666 388.0
61.9335 406.0
62.0003 420.0
62.0672 432.0
62.134 534.0
62.2008 531.0
62.2677 517.0
62.3345 524.0
62.4014 507.0
62.4682 516.0
62.5351 549.0
62.6019 570.0
62.6688 574.0
62.7356 551.0
62.8024 561.0
62.8693 451.0
62.9361 425.0
63.003 435.0
63.0698 386.0
63.1367 388.0
63.2035 450.0
63.2704 466.0
63.3372 451.0
63.4041 502.0
63.4709 531.0
63.5377 750.0
63.6046 928.0
63.6714 1011.0
63.7383 939.0
63.8051 818.0
63.872 750.0
63.9388 599.0
64.0057 518.0
64.0725 504.0
64.1393 466.0
64.2062 512.0
64.273 606.0
64.3399 732.0
64.4067 738.0
64.4736 713.0
64.5404 756.0
64.6073 676.0
64.6741 625.0
64.741 584.0
64.8078 579.0
64.8746 524.0
64.9415 498.0
65.0083 497.0
65.0752 533.0
65.142 525.0
65.2089 462.0
65.2757 538.0
65.3426 549.0
65.4094 585.0
65.4762 683.0
65.5431 657.0
65.6099 580.0
65.6768 545.0
65.7436 553.0
65.8105 531.0
65.8773 625.0
65.9442 592.0
66.011 591.0
66.0779 569.0
66.1447 547.0
66.2115 550.0
66.2784 597.0
66.3452 535.0
66.4121 533.0
66.4789 542.0
66.5458 470.0
66.6126 408.0
66.6795 441.0
66.7463 362.0
66.8132 429.0
66.88 435.0
66.9468 494.0
67.0137 523.0
67.0805 553.0
67.1474 656.0
67.2142 661.0
67.2811 675.0
67.3479 639.0
67.4148 584.0
67.4816 566.0
67.5484 497.0
67.6153 436.0
67.6821 495.0
67.749 521.0
67.8158 520.0
67.8827 438.0
67.9495 409.0
68.0164 423.0
68.0832 396.0
68.1501 406.0
68.2169 378.0
68.2837 335.0
68.3506 340.0
68.4174 329.0
68.4843 304.0
68.5511 285.0
68.618 328.0
68.6848 297.0
68.7517 289.0
68.8185 394.0
68.8853 384.0
68.9522 412.0
69.019 411.0
69.0859 407.0
69.1527 376.0
69.2196 382.0
69.2864 347.0
69.3533 348.0
69.4201 352.0
69.487 345.0
69.5538 354.0
69.6206 344.0
69.6875 308.0
69.7543 310.0
69.8212 317.0
69.888 336.0
69.9549 325.0
70.0217 335.0
70.0886 333.0
70.1554 383.0
70.2222 427.0
70.2891 415.0
70.3559 368.0
70.4228 381.0
70.4896 404.0
70.5565 394.0
70.6233 401.0
70.6902 407.0
70.757 372.0
70.8239 339.0
70.8907 320.0
70.9575 369.0
71.0244 337.0
71.0912 367.0
71.1581 356.0
71.2249 392.0
71.2918 418.0
71.3586 394.0
71.4255 379.0
71.4923 382.0
71.5592 353.0
71.626 321.0
71.6928 304.0
71.7597 294.0
71.8265 278.0
71.8934 279.0
71.9602 285.0
72.0271 330.0
72.0939 279.0
72.1608 333.0
72.2276 306.0
72.2944 324.0
72.3613 341.0
72.4281 342.0
72.495 284.0
72.5618 267.0
72.6287 273.0
72.6955 275.0
72.7624 284.0
72.8292 256.0
72.8961 253.0
72.9629 269.0
73.0297 279.0
73.0966 267.0
73.1634 293.0
73.2303 290.0
73.2971 283.0
73.364 315.0
73.4308 288.0
73.4977 313.0
73.5645 325.0
73.6313 368.0
73.6982 382.0
73.765 360.0
73.8319 389.0
73.8987 384.0
73.9656 367.0
74.0324 336.0
74.0993 324.0
74.1661 326.0
74.233 287.0
74.2998 310.0
74.3666 284.0
74.4335 315.0
74.5003 337.0
74.5672 323.0
74.634 370.0
74.7009 338.0
74.7677 403.0
74.8346 371.0
74.9014 386.0
74.9683 372.0
75.0351 375.0
75.1019 369.0
75.1688 369.0
75.2356 351.0
75.3025 381.0
75.3693 379.0
75.4362 348.0
75.503 397.0
75.5699 470.0
75.6367 514.0
75.7035 447.0
75.7704 401.0
75.8372 448.0
75.9041 385.0
75.9709 336.0
76.0378 320.0
76.1046 317.0
76.1715 347.0
76.2383 370.0
76.3052 380.0
76.372 336.0
76.4388 334.0
76.5057 344.0
76.5725 372.0
76.6394 392.0
76.7062 344.0
76.7731 342.0
76.8399 372.0
76.9068 335.0
76.9736 373.0
77.0404 353.0
77.1073 412.0
77.1741 434.0
77.241 426.0
77.3078 399.0
77.3747 408.0
77.4415 399.0
77.5084 386.0
77.5752 418.0
77.6421 420.0
77.7089 384.0
77.7757 393.0
77.8426 396.0
77.9094 350.0
77.9763 345.0
78.0431 349.0
78.11 411.0
78.1768 356.0
78.2437 379.0
78.3105 395.0
78.3773 364.0
78.4442 467.0
78.511 488.0
78.5779 428.0
78.6447 475.0
78.7116 501.0
78.7784 556.0
78.8453 539.0
78.9121 620.0
78.979 522.0
79.0458 569.0
79.1126 598.0
79.1795 621.0
79.2463 547.0
79.3132 505.0
79.38 482.0
79.4469 524.0
79.5137 417.0
79.5806 422.0
79.6474 423.0
79.7143 418.0
79.7811 402.0
79.8479 408.0
79.9148 427.0
79.9816 415.0
80.0485 399.0
80.1153 384.0
80.1822 380.0
80.249 429.0
80.3159 411.0
80.3827 438.0
80.4495 477.0
80.5164 417.0
80.5832 391.0
80.6501 354.0
80.7169 356.0
80.7838 407.0
80.8506 326.0
80.9175 324.0
80.9843 347.0
81.0512 347.0
81.118 370.0
81.1848 360.0
81.2517 361.0
81.3185 322.0
81.3854 355.0
81.4522 385.0
81.5191 358.0
81.5859 402.0
81.6528 318.0
81.7196 340.0
81.7864 363.0
81.8533 389.0
81.9201 388.0
81.987 354.0
82.0538 319.0
82.1207 322.0
82.1875 353.0
82.2544 308.0
82.3212 305.0
82.3881 354.0
82.4549 314.0
82.5217 337.0
82.5886 331.0
82.6554 332.0
82.7223 348.0
82.7891 323.0
82.856 341.0
82.9228 339.0
82.9897 302.0
83.0565 299.0
83.1233 290.0
83.1902 328.0
83.257 313.0
83.3239 308.0
83.3907 318.0
83.4576 297.0
83.5244 269.0
83.5913 284.0
83.6581 304.0
83.725 256.0
83.7918 279.0
83.8586 242.0
83.9255 227.0
83.9923 258.0
84.0592 257.0
84.126 273.0
84.1929 300.0
84.2597 260.0
84.3266 289.0
84.3934 294.0
84.4603 316.0
84.5271 297.0
84.5939 336.0
84.6608 339.0
84.7276 346.0
84.7945 288.0
84.8613 305.0
84.9282 277.0
84.995 259.0
85.0619 264.0
85.1287 285.0
85.1955 291.0
85.2624 266.0
85.3292 292.0
85.3961 287.0
85.4629 270.0
85.5298 270.0
85.5966 275.0
85.6635 263.0
85.7303 291.0
85.7972 275.0
85.864 271.0
85.9308 294.0
85.9977 311.0
86.0645 302.0
86.1314 310.0
86.1982 323.0
86.2651 304.0
86.3319 295.0
86.3988 254.0
86.4656 257.0
86.5324 261.0
86.5993 217.0
86.6661 245.0
86.733 243.0
86.7998 230.0
86.8667 222.0
86.9335 225.0
87.0004 205.0
87.0672 222.0
87.1341 259.0
87.2009 245.0
87.2677 255.0
87.3346 223.0
87.4014 258.0
87.4683 261.0
87.5351 203.0
87.602 248.0
87.6688 236.0
87.7357 230.0
87.8025 237.0
87.8693 241.0
87.9362 268.0
88.003 246.0
88.0699 237.0
88.1367 276.0
88.2036 271.0
88.2704 269.0
88.3373 248.0
88.4041 250.0
88.471 224.0
88.5378 258.0
88.6046 242.0
88.6715 225.0
88.7383 246.0
88.8052 237.0
88.872 239.0
88.9389 206.0
89.0057 221.0
89.0726 213.0
89.1394 204.0
89.2063 204.0
89.2731 238.0
89.3399 224.0
89.4068 262.0
89.4736 251.0
89.5405 233.0
89.6073 261.0
89.6742 211.0
89.741 228.0
89.8079 225.0
89.8747 238.0
89.9415 223.0