File: code/XRD_Analysis/External Sources/Fabian/20240409_RhCo3_MCm-41_not_used.xy
4.98146 17714.0
5.0483 16394.0
5.11515 14772.0
5.18199 13330.0
5.24884 12158.0
5.31568 11272.0
5.38253 10254.0
5.44937 9724.0
5.51622 9295.0
5.58306 8970.0
5.64991 8762.0
5.71675 8401.0
5.7836 8326.0
5.85044 8235.0
5.91729 8149.0
5.98413 7933.0
6.05098 7783.0
6.11782 7966.0
6.18467 7933.0
6.25151 8081.0
6.31836 8282.0
6.3852 8012.0
6.45205 8300.0
6.51889 7874.0
6.58574 7656.0
6.65258 7141.0
6.71943 7003.0
6.78627 6801.0
6.85312 6644.0
6.91996 6419.0
6.98681 6341.0
7.05365 6212.0
7.1205 6060.0
7.18734 6078.0
7.25419 5858.0
7.32103 5879.0
7.38788 5931.0
7.45472 5682.0
7.52157 5649.0
7.58841 5650.0
7.65526 5431.0
7.7221 5396.0
7.78895 5400.0
7.85579 5407.0
7.92264 5220.0
7.98948 5158.0
8.05633 5062.0
8.12317 4997.0
8.19002 5095.0
8.25686 4968.0
8.32371 4903.0
8.39055 4796.0
8.4574 4861.0
8.52424 4672.0
8.59109 4692.0
8.65793 4783.0
8.72478 4553.0
8.79162 4742.0
8.85847 4624.0
8.92532 4618.0
8.99216 4516.0
9.05901 4563.0
9.12585 4437.0
9.1927 4586.0
9.25954 4434.0
9.32639 4415.0
9.39323 4381.0
9.46008 4496.0
9.52692 4214.0
9.59377 4217.0
9.66061 4387.0
9.72746 4230.0
9.7943 4198.0
9.86115 4313.0
9.92799 4179.0
9.99484 4235.0
10.0617 4271.0
10.1285 4235.0
10.1954 4153.0
10.2622 4022.0
10.3291 4353.0
10.3959 4177.0
10.4628 4127.0
10.5296 4095.0
10.5964 4159.0
10.6633 4121.0
10.7301 4146.0
10.797 4056.0
10.8638 4085.0
10.9307 4036.0
10.9975 3949.0
11.0644 4133.0
11.1312 4093.0
11.198 4084.0
11.2649 4003.0
11.3317 4004.0
11.3986 3886.0
11.4654 4000.0
11.5323 4010.0
11.5991 4014.0
11.666 3916.0
11.7328 3972.0
11.7997 4024.0
11.8665 3972.0
11.9333 3972.0
12.0002 4079.0
12.067 3893.0
12.1339 3911.0
12.2007 3934.0
12.2676 3963.0
12.3344 4005.0
12.4013 4038.0
12.4681 3956.0
12.5349 3952.0
12.6018 3920.0
12.6686 4008.0
12.7355 4023.0
12.8023 3871.0
12.8692 4108.0
12.936 3999.0
13.0029 4106.0
13.0697 4028.0
13.1366 3995.0
13.2034 4014.0
13.2702 4010.0
13.3371 4060.0
13.4039 4044.0
13.4708 4098.0
13.5376 4036.0
13.6045 4163.0
13.6713 3934.0
13.7382 4097.0
13.805 4066.0
13.8719 4153.0
13.9387 3981.0
14.0055 4124.0
14.0724 4151.0
14.1392 4017.0
14.2061 4142.0
14.2729 4247.0
14.3398 4152.0
14.4066 4265.0
14.4735 4296.0
14.5403 4118.0
14.6071 4188.0
14.674 4135.0
14.7408 4243.0
14.8077 4110.0
14.8745 4162.0
14.9414 4236.0
15.0082 4157.0
15.0751 4329.0
15.1419 4177.0
15.2088 4405.0
15.2756 4356.0
15.3424 4324.0
15.4093 4455.0
15.4761 4398.0
15.543 4280.0
15.6098 4439.0
15.6767 4407.0
15.7435 4428.0
15.8104 4621.0
15.8772 4463.0
15.944 4462.0
16.0109 4581.0
16.0777 4508.0
16.1446 4679.0
16.2114 4634.0
16.2783 4569.0
16.3451 4586.0
16.412 4720.0
16.4788 4801.0
16.5457 4575.0
16.6125 4703.0
16.6793 4731.0
16.7462 4799.0
16.813 4842.0
16.8799 4771.0
16.9467 4823.0
17.0136 4986.0
17.0804 5043.0
17.1473 4919.0
17.2141 5146.0
17.2809 4970.0
17.3478 5059.0
17.4146 5082.0
17.4815 5035.0
17.5483 5087.0
17.6152 5221.0
17.682 5131.0
17.7489 5203.0
17.8157 5175.0
17.8826 5226.0
17.9494 5209.0
18.0162 5431.0
18.0831 5466.0
18.1499 5419.0
18.2168 5451.0
18.2836 5549.0
18.3505 5450.0
18.4173 5613.0
18.4842 5594.0
18.551 5660.0
18.6179 5696.0
18.6847 5793.0
18.7515 5783.0
18.8184 5711.0
18.8852 5942.0
18.9521 5924.0
19.0189 5833.0
19.0858 5904.0
19.1526 5857.0
19.2195 6151.0
19.2863 5945.0
19.3531 6009.0
19.42 6061.0
19.4868 6142.0
19.5537 6076.0
19.6205 6148.0
19.6874 6203.0
19.7542 6240.0
19.8211 6242.0
19.8879 6276.0
19.9548 6364.0
20.0216 6411.0
20.0884 6430.0
20.1553 6460.0
20.2221 6477.0
20.289 6418.0
20.3558 6405.0
20.4227 6607.0
20.4895 6579.0
20.5564 6677.0
20.6232 6801.0
20.69 6718.0
20.7569 6602.0
20.8237 6554.0
20.8906 6772.0
20.9574 6687.0
21.0243 6777.0
21.0911 6761.0
21.158 6823.0
21.2248 6776.0
21.2917 7037.0
21.3585 6879.0
21.4253 7018.0
21.4922 6990.0
21.559 6945.0
21.6259 6881.0
21.6927 6879.0
21.7596 6833.0
21.8264 6934.0
21.8933 7028.0
21.9601 7185.0
22.0269 7088.0
22.0938 7122.0
22.1606 7166.0
22.2275 7059.0
22.2943 7119.0
22.3612 7053.0
22.428 7249.0
22.4949 7061.0
22.5617 7122.0
22.6286 7186.0
22.6954 7108.0
22.7622 7068.0
22.8291 7327.0
22.8959 7192.0
22.9628 7128.0
23.0296 7116.0
23.0965 7141.0
23.1633 7005.0
23.2302 6904.0
23.297 7076.0
23.3639 7017.0
23.4307 6866.0
23.4975 7042.0
23.5644 7051.0
23.6312 6944.0
23.6981 6906.0
23.7649 7099.0
23.8318 6836.0
23.8986 6891.0
23.9655 6821.0
24.0323 6929.0
24.0991 6856.0
24.166 6754.0
24.2328 6946.0
24.2997 6922.0
24.3665 6882.0
24.4334 6761.0
24.5002 6874.0
24.5671 6695.0
24.6339 6819.0
24.7008 6734.0
24.7676 6712.0
24.8344 6735.0
24.9013 6525.0
24.9681 6602.0
25.035 6419.0
25.1018 6538.0
25.1687 6529.0
25.2355 6290.0
25.3024 6473.0
25.3692 6466.0
25.436 6474.0
25.5029 6394.0
25.5697 6375.0
25.6366 6192.0
25.7034 6303.0
25.7703 6270.0
25.8371 6202.0
25.904 6105.0
25.9708 6131.0
26.0377 6011.0
26.1045 5974.0
26.1713 5974.0
26.2382 5995.0
26.305 5984.0
26.3719 5912.0
26.4387 6054.0
26.5056 5947.0
26.5724 5790.0
26.6393 5722.0
26.7061 5930.0
26.773 5600.0
26.8398 5787.0
26.9066 5626.0
26.9735 5617.0
27.0403 5654.0
27.1072 5610.0
27.174 5432.0
27.2409 5482.0
27.3077 5526.0
27.3746 5499.0
27.4414 5439.0
27.5082 5514.0
27.5751 5421.0
27.6419 5434.0
27.7088 5367.0
27.7756 5417.0
27.8425 5186.0
27.9093 5275.0
27.9762 5303.0
28.043 5245.0
28.1099 5184.0
28.1767 5141.0
28.2435 5258.0
28.3104 5168.0
28.3772 5072.0
28.4441 5230.0
28.5109 5096.0
28.5778 4903.0
28.6446 5046.0
28.7115 4903.0
28.7783 4811.0
28.8451 4961.0
28.912 4850.0
28.9788 4863.0
29.0457 4897.0
29.1125 4872.0
29.1794 4656.0
29.2462 4800.0
29.3131 4801.0
29.3799 4924.0
29.4468 4664.0
29.5136 4683.0
29.5804 4722.0
29.6473 4757.0
29.7141 4718.0
29.781 4706.0
29.8478 4557.0
29.9147 4630.0
29.9815 4504.0
30.0484 4637.0
30.1152 4444.0
30.182 4587.0
30.2489 4546.0
30.3157 4551.0
30.3826 4432.0
30.4494 4470.0
30.5163 4467.0
30.5831 4506.0
30.65 4330.0
30.7168 4526.0
30.7837 4454.0
30.8505 4407.0
30.9173 4393.0
30.9842 4349.0
31.051 4308.0
31.1179 4233.0
31.1847 4295.0
31.2516 4397.0
31.3184 4375.0
31.3853 4370.0
31.4521 4248.0
31.519 4358.0
31.5858 4425.0
31.6526 4248.0
31.7195 4302.0
31.7863 4210.0
31.8532 4273.0
31.92 4294.0
31.9869 4192.0
32.0537 4082.0
32.1206 4194.0
32.1874 4158.0
32.2542 4141.0
32.3211 4053.0
32.3879 4082.0
32.4548 3964.0
32.5216 4114.0
32.5885 4023.0
32.6553 4021.0
32.7222 3920.0
32.789 4019.0
32.8559 3940.0
32.9227 3972.0
32.9895 4028.0
33.0564 3906.0
33.1232 4040.0
33.1901 3972.0
33.2569 3904.0
33.3238 3857.0
33.3906 3844.0
33.4575 3824.0
33.5243 3859.0
33.5911 3849.0
33.658 3877.0
33.7248 3834.0
33.7917 3890.0
33.8585 3891.0
33.9254 3839.0
33.9922 3727.0
34.0591 3815.0
34.1259 3892.0
34.1928 3807.0
34.2596 3866.0
34.3264 3822.0
34.3933 3795.0
34.4601 3892.0
34.527 3820.0
34.5938 3784.0
34.6607 3800.0
34.7275 3827.0
34.7944 3811.0
34.8612 3833.0
34.928 3805.0
34.9949 3810.0
35.0617 3774.0
35.1286 3811.0
35.1954 3745.0
35.2623 3746.0
35.3291 3697.0
35.396 3746.0
35.4628 3671.0
35.5297 3726.0
35.5965 3790.0
35.6633 3778.0
35.7302 3654.0
35.797 3860.0
35.8639 3755.0
35.9307 3802.0
35.9976 3816.0
36.0644 3780.0
36.1313 3738.0
36.1981 3711.0
36.265 3673.0
36.3318 3822.0
36.3986 3843.0
36.4655 3764.0
36.5323 3580.0
36.5992 3692.0
36.666 3726.0
36.7329 3595.0
36.7997 3566.0
36.8666 3587.0
36.9334 3680.0
37.0002 3498.0
37.0671 3565.0
37.1339 3601.0
37.2008 3496.0
37.2676 3411.0
37.3345 3515.0
37.4013 3592.0
37.4682 3450.0
37.535 3408.0
37.6019 3321.0
37.6687 3291.0
37.7355 3443.0
37.8024 3293.0
37.8692 3244.0
37.9361 3252.0
38.0029 3383.0
38.0698 3344.0
38.1366 3224.0
38.2035 3295.0
38.2703 3322.0
38.3371 3263.0
38.404 3231.0
38.4708 3159.0
38.5377 3249.0
38.6045 3163.0
38.6714 3153.0
38.7382 3072.0
38.8051 3225.0
38.8719 3208.0
38.9388 3248.0
39.0056 3157.0
39.0724 3094.0
39.1393 3032.0
39.2061 3133.0
39.273 3153.0
39.3398 3042.0
39.4067 3121.0
39.4735 3059.0
39.5404 3014.0
39.6072 3055.0
39.6741 2958.0
39.7409 3094.0
39.8077 3039.0
39.8746 3022.0
39.9414 2985.0
40.0083 2985.0
40.0751 3019.0
40.142 3006.0
40.2088 3041.0
40.2757 2949.0
40.3425 2937.0
40.4093 3044.0
40.4762 3077.0
40.543 3027.0
40.6099 2941.0
40.6767 3017.0
40.7436 3045.0
40.8104 2984.0
40.8773 2983.0
40.9441 3018.0
41.011 2971.0
41.0778 3007.0
41.1446 3088.0
41.2115 3120.0
41.2783 3010.0
41.3452 2990.0
41.412 2918.0
41.4789 2946.0
41.5457 3066.0
41.6126 2974.0
41.6794 2997.0
41.7462 2924.0
41.8131 3014.0
41.8799 3037.0
41.9468 2898.0
42.0136 2970.0
42.0805 2996.0
42.1473 2956.0
42.2142 3103.0
42.281 2876.0
42.3479 2947.0
42.4147 2921.0
42.4815 2895.0
42.5484 3050.0
42.6152 2990.0
42.6821 2962.0
42.7489 2869.0
42.8158 2972.0
42.8826 2902.0
42.9495 2995.0
43.0163 2973.0
43.0831 2888.0
43.15 2923.0
43.2168 2936.0
43.2837 2832.0
43.3505 3003.0
43.4174 3009.0
43.4842 3000.0
43.5511 2951.0
43.6179 2976.0
43.6848 2912.0
43.7516 2780.0
43.8184 2936.0
43.8853 2962.0
43.9521 2904.0
44.019 2968.0
44.0858 2915.0
44.1527 2906.0
44.2195 2857.0
44.2864 2904.0
44.3532 2979.0
44.4201 2940.0
44.4869 2898.0
44.5537 2846.0
44.6206 3006.0
44.6874 2968.0
44.7543 2964.0
44.8211 2842.0
44.888 2943.0
44.9548 2974.0
45.0217 2931.0
45.0885 2948.0
45.1553 2932.0
45.2222 2859.0
45.289 2897.0
45.3559 2848.0
45.4227 2866.0
45.4896 2782.0
45.5564 2830.0
45.6233 2850.0
45.6901 2929.0
45.757 2824.0
45.8238 2876.0
45.8906 2858.0
45.9575 2794.0
46.0243 2890.0
46.0912 3013.0
46.158 2761.0
46.2249 2884.0
46.2917 2769.0
46.3586 2893.0
46.4254 2889.0
46.4922 2835.0
46.5591 2770.0
46.6259 2764.0
46.6928 2782.0
46.7596 2824.0
46.8265 2800.0
46.8933 2897.0
46.9602 2690.0
47.027 2796.0
47.0939 2764.0
47.1607 2834.0
47.2275 2789.0
47.2944 2786.0
47.3612 2880.0
47.4281 2775.0
47.4949 2770.0
47.5618 2786.0
47.6286 2695.0
47.6955 2714.0
47.7623 2828.0
47.8291 2793.0
47.896 2783.0
47.9628 2812.0
48.0297 2749.0
48.0965 2796.0
48.1634 2604.0
48.2302 2798.0
48.2971 2720.0
48.3639 2767.0
48.4308 2709.0
48.4976 2713.0
48.5644 2811.0
48.6313 2784.0
48.6981 2808.0
48.765 2703.0
48.8318 2678.0
48.8987 2682.0
48.9655 2755.0
49.0324 2760.0
49.0992 2687.0
49.1661 2735.0
49.2329 2709.0
49.2997 2741.0
49.3666 2758.0
49.4334 2649.0
49.5003 2652.0
49.5671 2765.0
49.634 2616.0
49.7008 2687.0
49.7677 2644.0
49.8345 2746.0
49.9013 2735.0
49.9682 2780.0
50.035 2556.0
50.1019 2745.0
50.1687 2676.0
50.2356 2626.0
50.3024 2620.0
50.3693 2587.0
50.4361 2639.0
50.503 2563.0
50.5698 2679.0
50.6366 2581.0
50.7035 2631.0
50.7703 2692.0
50.8372 2562.0
50.904 2614.0
50.9709 2562.0
51.0377 2638.0
51.1046 2681.0
51.1714 2582.0
51.2382 2574.0
51.3051 2536.0
51.3719 2626.0
51.4388 2664.0
51.5056 2622.0
51.5725 2618.0
51.6393 2655.0
51.7062 2607.0
51.773 2596.0
51.8399 2555.0
51.9067 2571.0
51.9735 2530.0
52.0404 2642.0
52.1072 2611.0
52.1741 2537.0
52.2409 2621.0
52.3078 2555.0
52.3746 2621.0
52.4415 2641.0
52.5083 2584.0
52.5751 2601.0
52.642 2531.0
52.7088 2570.0
52.7757 2520.0
52.8425 2641.0
52.9094 2532.0
52.9762 2585.0
53.0431 2569.0
53.1099 2625.0
53.1768 2498.0
53.2436 2503.0
53.3104 2670.0
53.3773 2606.0
53.4441 2540.0
53.511 2553.0
53.5778 2554.0
53.6447 2507.0
53.7115 2457.0
53.7784 2576.0
53.8452 2517.0
53.9121 2567.0
53.9789 2558.0
54.0457 2556.0
54.1126 2502.0
54.1794 2667.0
54.2463 2606.0
54.3131 2505.0
54.38 2509.0
54.4468 2479.0
54.5137 2508.0
54.5805 2516.0
54.6473 2660.0
54.7142 2530.0
54.781 2584.0
54.8479 2496.0
54.9147 2521.0
54.9816 2512.0
55.0484 2540.0
55.1153 2496.0
55.1821 2525.0
55.249 2481.0
55.3158 2531.0
55.3826 2598.0
55.4495 2545.0
55.5163 2471.0
55.5832 2539.0
55.65 2507.0
55.7169 2643.0
55.7837 2628.0
55.8506 2586.0
55.9174 2550.0
55.9842 2484.0
56.0511 2566.0
56.1179 2505.0
56.1848 2590.0
56.2516 2707.0
56.3185 2527.0
56.3853 2530.0
56.4522 2574.0
56.519 2545.0
56.5859 2525.0
56.6527 2698.0
56.7195 2603.0
56.7864 2494.0
56.8532 2521.0
56.9201 2609.0
56.9869 2558.0
57.0538 2582.0
57.1206 2540.0
57.1875 2524.0
57.2543 2480.0
57.3212 2472.0
57.388 2556.0
57.4548 2495.0
57.5217 2521.0
57.5885 2495.0
57.6554 2551.0
57.7222 2520.0
57.7891 2497.0
57.8559 2449.0
57.9228 2443.0
57.9896 2385.0
58.0564 2444.0
58.1233 2503.0
58.1901 2517.0
58.257 2554.0
58.3238 2469.0
58.3907 2404.0
58.4575 2447.0
58.5244 2516.0
58.5912 2539.0
58.6581 2433.0
58.7249 2541.0
58.7917 2539.0
58.8586 2589.0
58.9254 2418.0
58.9923 2462.0
59.0591 2481.0
59.126 2553.0
59.1928 2503.0
59.2597 2434.0
59.3265 2458.0
59.3933 2410.0
59.4602 2460.0
59.527 2465.0
59.5939 2539.0
59.6607 2509.0
59.7276 2450.0
59.7944 2499.0
59.8613 2425.0
59.9281 2431.0
59.995 2497.0
60.0618 2518.0
60.1286 2588.0
60.1955 2478.0
60.2623 2470.0
60.3292 2427.0
60.396 2353.0
60.4629 2572.0
60.5297 2462.0
60.5966 2468.0
60.6634 2427.0
60.7302 2508.0
60.7971 2505.0
60.8639 2515.0
60.9308 2464.0
60.9976 2441.0
61.0645 2378.0
61.1313 2409.0
61.1982 2423.0
61.265 2432.0
61.3319 2517.0
61.3987 2418.0
61.4655 2437.0
61.5324 2489.0
61.5992 2395.0
61.6661 2414.0
61.7329 2452.0
61.7998 2617.0
61.8666 2500.0
61.9335 2309.0
62.0003 2497.0
62.0672 2454.0
62.134 2427.0
62.2008 2390.0
62.2677 2570.0
62.3345 2440.0
62.4014 2491.0
62.4682 2423.0
62.5351 2508.0
62.6019 2456.0
62.6688 2538.0
62.7356 2568.0
62.8024 2562.0
62.8693 2401.0
62.9361 2468.0
63.003 2447.0
63.0698 2427.0
63.1367 2483.0
63.2035 2455.0
63.2704 2466.0
63.3372 2504.0
63.4041 2512.0
63.4709 2515.0
63.5377 2441.0
63.6046 2484.0
63.6714 2441.0
63.7383 2519.0
63.8051 2501.0
63.872 2501.0
63.9388 2432.0
64.0057 2356.0
64.0725 2427.0
64.1393 2432.0
64.2062 2488.0
64.273 2481.0
64.3399 2433.0
64.4067 2405.0
64.4736 2440.0
64.5404 2325.0
64.6073 2422.0
64.6741 2413.0
64.741 2456.0
64.8078 2393.0
64.8746 2323.0
64.9415 2383.0
65.0083 2439.0
65.0752 2313.0
65.142 2462.0
65.2089 2365.0
65.2757 2402.0
65.3426 2308.0
65.4094 2431.0
65.4762 2464.0
65.5431 2403.0
65.6099 2430.0
65.6768 2377.0
65.7436 2398.0
65.8105 2470.0
65.8773 2393.0
65.9442 2339.0
66.011 2449.0
66.0779 2375.0
66.1447 2405.0
66.2115 2365.0
66.2784 2442.0
66.3452 2371.0
66.4121 2375.0
66.4789 2329.0
66.5458 2403.0
66.6126 2312.0
66.6795 2418.0
66.7463 2465.0
66.8132 2426.0
66.88 2358.0
66.9468 2407.0
67.0137 2351.0
67.0805 2370.0
67.1474 2275.0
67.2142 2261.0
67.2811 2264.0
67.3479 2295.0
67.4148 2366.0
67.4816 2339.0
67.5484 2405.0
67.6153 2294.0
67.6821 2414.0
67.749 2337.0
67.8158 2458.0
67.8827 2380.0
67.9495 2362.0
68.0164 2384.0
68.0832 2436.0
68.1501 2390.0
68.2169 2297.0
68.2837 2288.0
68.3506 2354.0
68.4174 2382.0
68.4843 2405.0
68.5511 2343.0
68.618 2437.0
68.6848 2405.0
68.7517 2322.0
68.8185 2327.0
68.8853 2361.0
68.9522 2318.0
69.019 2401.0
69.0859 2281.0
69.1527 2340.0
69.2196 2364.0
69.2864 2311.0
69.3533 2199.0
69.4201 2312.0
69.487 2296.0
69.5538 2302.0
69.6206 2328.0
69.6875 2250.0
69.7543 2248.0
69.8212 2286.0
69.888 2289.0
69.9549 2368.0
70.0217 2218.0
70.0886 2269.0
70.1554 2267.0
70.2222 2182.0
70.2891 2251.0
70.3559 2274.0
70.4228 2206.0
70.4896 2217.0
70.5565 2187.0
70.6233 2327.0
70.6902 2215.0
70.757 2232.0
70.8239 2213.0
70.8907 2257.0
70.9575 2245.0
71.0244 2238.0
71.0912 2237.0
71.1581 2158.0
71.2249 2214.0
71.2918 2240.0
71.3586 2171.0
71.4255 2220.0
71.4923 2266.0
71.5592 2194.0
71.626 2311.0
71.6928 2164.0
71.7597 2248.0
71.8265 2212.0
71.8934 2247.0
71.9602 2241.0
72.0271 2273.0
72.0939 2139.0
72.1608 2237.0
72.2276 2244.0
72.2944 2172.0
72.3613 2195.0
72.4281 2250.0
72.495 2204.0
72.5618 2198.0
72.6287 2211.0
72.6955 2207.0
72.7624 2180.0
72.8292 2186.0
72.8961 2183.0
72.9629 2104.0
73.0297 2157.0
73.0966 2178.0
73.1634 2152.0
73.2303 2189.0
73.2971 2210.0
73.364 2149.0
73.4308 2182.0
73.4977 2197.0
73.5645 2120.0
73.6313 2092.0
73.6982 2192.0
73.765 2138.0
73.8319 2161.0
73.8987 2224.0
73.9656 2076.0
74.0324 2225.0
74.0993 2239.0
74.1661 2226.0
74.233 2188.0
74.2998 2093.0
74.3666 2185.0
74.4335 2212.0
74.5003 2152.0
74.5672 2158.0
74.634 2199.0
74.7009 2152.0
74.7677 2085.0
74.8346 2180.0
74.9014 2139.0
74.9683 2144.0
75.0351 2082.0
75.1019 2156.0
75.1688 2224.0
75.2356 2064.0
75.3025 2187.0
75.3693 2191.0
75.4362 2139.0
75.503 2103.0
75.5699 2218.0
75.6367 2204.0
75.7035 2120.0
75.7704 2081.0
75.8372 2146.0
75.9041 2132.0
75.9709 2101.0
76.0378 2177.0
76.1046 2178.0
76.1715 2150.0
76.2383 2183.0
76.3052 2076.0
76.372 2088.0
76.4388 2108.0
76.5057 2113.0
76.5725 2138.0
76.6394 2130.0
76.7062 2175.0
76.7731 2077.0
76.8399 2143.0
76.9068 2019.0
76.9736 2055.0
77.0404 2177.0
77.1073 2062.0
77.1741 2089.0
77.241 2113.0
77.3078 2085.0
77.3747 2046.0
77.4415 2059.0
77.5084 2069.0
77.5752 2108.0
77.6421 2105.0
77.7089 2138.0
77.7757 2056.0
77.8426 2159.0
77.9094 2040.0
77.9763 2020.0
78.0431 2160.0
78.11 2093.0
78.1768 2028.0
78.2437 2082.0
78.3105 2020.0
78.3773 2017.0
78.4442 2072.0
78.511 2057.0
78.5779 2005.0
78.6447 1999.0
78.7116 2060.0
78.7784 2048.0
78.8453 2133.0
78.9121 2080.0
78.979 1999.0
79.0458 2041.0
79.1126 2032.0
79.1795 1969.0
79.2463 2116.0
79.3132 2057.0
79.38 1995.0
79.4469 2035.0
79.5137 2006.0
79.5806 2006.0
79.6474 1981.0
79.7143 2017.0
79.7811 2018.0
79.8479 1993.0
79.9148 1995.0
79.9816 2008.0
80.0485 2080.0
80.1153 2008.0
80.1822 1953.0
80.249 2032.0
80.3159 2038.0
80.3827 1975.0
80.4495 2017.0
80.5164 1959.0
80.5832 2046.0
80.6501 1903.0
80.7169 1964.0
80.7838 1921.0
80.8506 2016.0
80.9175 2003.0
80.9843 1941.0
81.0512 1990.0
81.118 1912.0
81.1848 1985.0
81.2517 1875.0
81.3185 2033.0
81.3854 1987.0
81.4522 1979.0
81.5191 1953.0
81.5859 1905.0
81.6528 1906.0
81.7196 1866.0
81.7864 1835.0
81.8533 1833.0
81.9201 1927.0
81.987 1953.0
82.0538 1936.0
82.1207 1882.0
82.1875 1964.0
82.2544 1929.0
82.3212 1930.0
82.3881 1873.0
82.4549 1820.0
82.5217 1944.0
82.5886 1912.0
82.6554 1928.0
82.7223 1865.0
82.7891 1910.0
82.856 1959.0
82.9228 1901.0
82.9897 1921.0
83.0565 1891.0
83.1233 1837.0
83.1902 1916.0
83.257 1821.0
83.3239 1815.0
83.3907 1900.0
83.4576 1795.0
83.5244 1797.0
83.5913 1877.0
83.6581 1919.0
83.725 1979.0
83.7918 1813.0
83.8586 1786.0
83.9255 1807.0
83.9923 1844.0
84.0592 1873.0
84.126 1827.0
84.1929 1856.0
84.2597 1847.0
84.3266 1845.0
84.3934 1821.0
84.4603 1834.0
84.5271 1786.0
84.5939 1872.0
84.6608 1827.0
84.7276 1875.0
84.7945 1799.0
84.8613 1820.0
84.9282 1820.0
84.995 1798.0
85.0619 1836.0
85.1287 1774.0
85.1955 1778.0
85.2624 1827.0
85.3292 1848.0
85.3961 1815.0
85.4629 1717.0
85.5298 1877.0
85.5966 1774.0
85.6635 1818.0
85.7303 1750.0
85.7972 1815.0
85.864 1796.0
85.9308 1830.0
85.9977 1722.0
86.0645 1785.0
86.1314 1712.0
86.1982 1784.0
86.2651 1765.0
86.3319 1751.0
86.3988 1650.0
86.4656 1848.0
86.5324 1763.0
86.5993 1747.0
86.6661 1737.0
86.733 1807.0
86.7998 1806.0
86.8667 1787.0
86.9335 1777.0
87.0004 1740.0
87.0672 1735.0
87.1341 1745.0
87.2009 1716.0
87.2677 1758.0
87.3346 1690.0
87.4014 1725.0
87.4683 1756.0
87.5351 1769.0
87.602 1732.0
87.6688 1685.0
87.7357 1688.0
87.8025 1682.0
87.8693 1733.0
87.9362 1732.0
88.003 1705.0
88.0699 1683.0
88.1367 1756.0
88.2036 1746.0
88.2704 1780.0
88.3373 1770.0
88.4041 1703.0
88.471 1755.0
88.5378 1689.0
88.6046 1683.0
88.6715 1656.0
88.7383 1689.0
88.8052 1714.0
88.872 1673.0
88.9389 1679.0
89.0057 1714.0
89.0726 1681.0
89.1394 1737.0
89.2063 1771.0
89.2731 1738.0
89.3399 1754.0
89.4068 1685.0
89.4736 1686.0
89.5405 1665.0
89.6073 1719.0
89.6742 1775.0
89.741 1653.0
89.8079 1671.0
89.8747 1719.0
89.9415 1614.0
89.9583 1725.0