File: code/XRD_Analysis/External Sources/Fabian/20240404_RUB-50_lessMat_calc700C.xy
4.98146 1313.0
5.0483 1409.0
5.11515 1201.0
5.18199 1224.0
5.24884 1255.0
5.31568 1210.0
5.38253 1184.0
5.44937 1213.0
5.51622 1153.0
5.58306 1150.0
5.64991 1121.0
5.71675 1147.0
5.7836 1052.0
5.85044 1082.0
5.91729 1088.0
5.98413 1094.0
6.05098 1112.0
6.11782 1073.0
6.18467 1002.0
6.25151 1022.0
6.31836 1033.0
6.3852 1039.0
6.45205 1042.0
6.51889 1021.0
6.58574 981.0
6.65258 1002.0
6.71943 978.0
6.78627 1022.0
6.85312 1021.0
6.91996 1102.0
6.98681 1050.0
7.05365 1070.0
7.1205 1194.0
7.18734 1307.0
7.25419 1518.0
7.32103 1743.0
7.38788 1851.0
7.45472 1822.0
7.52157 1512.0
7.58841 1324.0
7.65526 1183.0
7.7221 1244.0
7.78895 1179.0
7.85579 1181.0
7.92264 1266.0
7.98948 1255.0
8.05633 1315.0
8.12317 1371.0
8.19002 1431.0
8.25686 1399.0
8.32371 1371.0
8.39055 1440.0
8.4574 1310.0
8.52424 1301.0
8.59109 1362.0
8.65793 1297.0
8.72478 1271.0
8.79162 1248.0
8.85847 1275.0
8.92532 1319.0
8.99216 1246.0
9.05901 1237.0
9.12585 1257.0
9.1927 1263.0
9.25954 1208.0
9.32639 1239.0
9.39323 1212.0
9.46008 1257.0
9.52692 1215.0
9.59377 1240.0
9.66061 1252.0
9.72746 1263.0
9.7943 1238.0
9.86115 1161.0
9.92799 1191.0
9.99484 1218.0
10.0617 1254.0
10.1285 1130.0
10.1954 1106.0
10.2622 1076.0
10.3291 1073.0
10.3959 1034.0
10.4628 955.0
10.5296 860.0
10.5964 911.0
10.6633 878.0
10.7301 822.0
10.797 751.0
10.8638 759.0
10.9307 792.0
10.9975 741.0
11.0644 709.0
11.1312 678.0
11.198 668.0
11.2649 693.0
11.3317 680.0
11.3986 634.0
11.4654 647.0
11.5323 586.0
11.5991 565.0
11.666 622.0
11.7328 579.0
11.7997 586.0
11.8665 606.0
11.9333 584.0
12.0002 642.0
12.067 662.0
12.1339 616.0
12.2007 600.0
12.2676 569.0
12.3344 660.0
12.4013 576.0
12.4681 632.0
12.5349 661.0
12.6018 630.0
12.6686 635.0
12.7355 664.0
12.8023 684.0
12.8692 706.0
12.936 709.0
13.0029 742.0
13.0697 743.0
13.1366 704.0
13.2034 676.0
13.2702 646.0
13.3371 649.0
13.4039 654.0
13.4708 629.0
13.5376 604.0
13.6045 561.0
13.6713 614.0
13.7382 615.0
13.805 626.0
13.8719 612.0
13.9387 604.0
14.0055 619.0
14.0724 667.0
14.1392 711.0
14.2061 695.0
14.2729 758.0
14.3398 746.0
14.4066 802.0
14.4735 963.0
14.5403 1130.0
14.6071 1301.0
14.674 1390.0
14.7408 1365.0
14.8077 1390.0
14.8745 1281.0
14.9414 1153.0
15.0082 1031.0
15.0751 1037.0
15.1419 977.0
15.2088 909.0
15.2756 881.0
15.3424 813.0
15.4093 837.0
15.4761 833.0
15.543 821.0
15.6098 797.0
15.6767 838.0
15.7435 774.0
15.8104 804.0
15.8772 798.0
15.944 772.0
16.0109 770.0
16.0777 766.0
16.1446 788.0
16.2114 788.0
16.2783 776.0
16.3451 759.0
16.412 735.0
16.4788 742.0
16.5457 679.0
16.6125 673.0
16.6793 643.0
16.7462 630.0
16.813 620.0
16.8799 629.0
16.9467 549.0
17.0136 564.0
17.0804 536.0
17.1473 566.0
17.2141 595.0
17.2809 534.0
17.3478 487.0
17.4146 517.0
17.4815 591.0
17.5483 527.0
17.6152 498.0
17.682 545.0
17.7489 527.0
17.8157 550.0
17.8826 568.0
17.9494 521.0
18.0162 549.0
18.0831 571.0
18.1499 568.0
18.2168 565.0
18.2836 600.0
18.3505 569.0
18.4173 602.0
18.4842 580.0
18.551 595.0
18.6179 649.0
18.6847 636.0
18.7515 642.0
18.8184 630.0
18.8852 726.0
18.9521 665.0
19.0189 672.0
19.0858 719.0
19.1526 754.0
19.2195 710.0
19.2863 816.0
19.3531 802.0
19.42 792.0
19.4868 851.0
19.5537 845.0
19.6205 806.0
19.6874 847.0
19.7542 855.0
19.8211 888.0
19.8879 911.0
19.9548 887.0
20.0216 864.0
20.0884 930.0
20.1553 961.0
20.2221 1003.0
20.289 987.0
20.3558 1022.0
20.4227 1035.0
20.4895 998.0
20.5564 959.0
20.6232 902.0
20.69 938.0
20.7569 941.0
20.8237 886.0
20.8906 901.0
20.9574 844.0
21.0243 897.0
21.0911 861.0
21.158 790.0
21.2248 856.0
21.2917 902.0
21.3585 870.0
21.4253 865.0
21.4922 916.0
21.559 899.0
21.6259 985.0
21.6927 935.0
21.7596 1070.0
21.8264 1131.0
21.8933 1162.0
21.9601 1216.0
22.0269 1284.0
22.0938 1296.0
22.1606 1316.0
22.2275 1362.0
22.2943 1427.0
22.3612 1504.0
22.428 1506.0
22.4949 1595.0
22.5617 1666.0
22.6286 1651.0
22.6954 1685.0
22.7622 1712.0
22.8291 1845.0
22.8959 1942.0
22.9628 1933.0
23.0296 1852.0
23.0965 1890.0
23.1633 1782.0
23.2302 1751.0
23.297 1660.0
23.3639 1631.0
23.4307 1554.0
23.4975 1528.0
23.5644 1480.0
23.6312 1468.0
23.6981 1431.0
23.7649 1429.0
23.8318 1354.0
23.8986 1307.0
23.9655 1347.0
24.0323 1294.0
24.0991 1313.0
24.166 1238.0
24.2328 1193.0
24.2997 1103.0
24.3665 1167.0
24.4334 1148.0
24.5002 1122.0
24.5671 1001.0
24.6339 1100.0
24.7008 1107.0
24.7676 1082.0
24.8344 1020.0
24.9013 1051.0
24.9681 1055.0
25.035 1044.0
25.1018 1149.0
25.1687 1173.0
25.2355 1277.0
25.3024 1253.0
25.3692 1364.0
25.436 1462.0
25.5029 1439.0
25.5697 1424.0
25.6366 1394.0
25.7034 1388.0
25.7703 1337.0
25.8371 1363.0
25.904 1313.0
25.9708 1335.0
26.0377 1509.0
26.1045 1584.0
26.1713 1793.0
26.2382 1905.0
26.305 2084.0
26.3719 2208.0
26.4387 2268.0
26.5056 2181.0
26.5724 1985.0
26.6393 1917.0
26.7061 1740.0
26.773 1574.0
26.8398 1534.0
26.9066 1437.0
26.9735 1415.0
27.0403 1418.0
27.1072 1413.0
27.174 1434.0
27.2409 1392.0
27.3077 1409.0
27.3746 1337.0
27.4414 1396.0
27.5082 1255.0
27.5751 1289.0
27.6419 1190.0
27.7088 1164.0
27.7756 1156.0
27.8425 1123.0
27.9093 1142.0
27.9762 1117.0
28.043 1091.0
28.1099 1016.0
28.1767 1062.0
28.2435 1049.0
28.3104 1029.0
28.3772 992.0
28.4441 1000.0
28.5109 997.0
28.5778 1018.0
28.6446 1000.0
28.7115 947.0
28.7783 937.0
28.8451 950.0
28.912 918.0
28.9788 855.0
29.0457 855.0
29.1125 850.0
29.1794 920.0
29.2462 883.0
29.3131 866.0
29.3799 838.0
29.4468 799.0
29.5136 834.0
29.5804 826.0
29.6473 743.0
29.7141 817.0
29.781 741.0
29.8478 756.0
29.9147 663.0
29.9815 724.0
30.0484 710.0
30.1152 663.0
30.182 638.0
30.2489 650.0
30.3157 613.0
30.3826 615.0
30.4494 611.0
30.5163 610.0
30.5831 632.0
30.65 547.0
30.7168 581.0
30.7837 623.0
30.8505 565.0
30.9173 531.0
30.9842 547.0
31.051 548.0
31.1179 514.0
31.1847 555.0
31.2516 588.0
31.3184 604.0
31.3853 559.0
31.4521 588.0
31.519 580.0
31.5858 588.0
31.6526 570.0
31.7195 557.0
31.7863 614.0
31.8532 646.0
31.92 625.0
31.9869 623.0
32.0537 660.0
32.1206 659.0
32.1874 663.0
32.2542 646.0
32.3211 661.0
32.3879 638.0
32.4548 619.0
32.5216 641.0
32.5885 627.0
32.6553 625.0
32.7222 619.0
32.789 665.0
32.8559 616.0
32.9227 621.0
32.9895 604.0
33.0564 547.0
33.1232 592.0
33.1901 629.0
33.2569 609.0
33.3238 603.0
33.3906 621.0
33.4575 647.0
33.5243 638.0
33.5911 660.0
33.658 683.0
33.7248 639.0
33.7917 707.0
33.8585 677.0
33.9254 669.0
33.9922 626.0
34.0591 679.0
34.1259 575.0
34.1928 675.0
34.2596 614.0
34.3264 619.0
34.3933 612.0
34.4601 601.0
34.527 569.0
34.5938 589.0
34.6607 587.0
34.7275 573.0
34.7944 571.0
34.8612 560.0
34.928 535.0
34.9949 544.0
35.0617 584.0
35.1286 542.0
35.1954 534.0
35.2623 549.0
35.3291 552.0
35.396 529.0
35.4628 504.0
35.5297 474.0
35.5965 488.0
35.6633 488.0
35.7302 476.0
35.797 453.0
35.8639 432.0
35.9307 471.0
35.9976 428.0
36.0644 435.0
36.1313 436.0
36.1981 478.0
36.265 402.0
36.3318 398.0
36.3986 432.0
36.4655 408.0
36.5323 457.0
36.5992 412.0
36.666 401.0
36.7329 426.0
36.7997 463.0
36.8666 461.0
36.9334 418.0
37.0002 418.0
37.0671 464.0
37.1339 471.0
37.2008 471.0
37.2676 426.0
37.3345 444.0
37.4013 445.0
37.4682 454.0
37.535 420.0
37.6019 439.0
37.6687 457.0
37.7355 449.0
37.8024 414.0
37.8692 391.0
37.9361 513.0
38.0029 481.0
38.0698 467.0
38.1366 473.0
38.2035 427.0
38.2703 460.0
38.3371 478.0
38.404 440.0
38.4708 479.0
38.5377 470.0
38.6045 462.0
38.6714 470.0
38.7382 424.0
38.8051 395.0
38.8719 371.0
38.9388 391.0
39.0056 407.0
39.0724 394.0
39.1393 380.0
39.2061 408.0
39.273 394.0
39.3398 366.0
39.4067 373.0
39.4735 354.0
39.5404 371.0
39.6072 415.0
39.6741 366.0
39.7409 399.0
39.8077 408.0
39.8746 333.0
39.9414 388.0
40.0083 367.0
40.0751 361.0
40.142 399.0
40.2088 369.0
40.2757 385.0
40.3425 340.0
40.4093 392.0
40.4762 352.0
40.543 391.0
40.6099 387.0
40.6767 364.0
40.7436 358.0
40.8104 396.0
40.8773 369.0
40.9441 358.0
41.011 386.0
41.0778 398.0
41.1446 379.0
41.2115 399.0
41.2783 373.0
41.3452 415.0
41.412 387.0
41.4789 347.0
41.5457 393.0
41.6126 353.0
41.6794 378.0
41.7462 368.0
41.8131 380.0
41.8799 363.0
41.9468 338.0
42.0136 341.0
42.0805 357.0
42.1473 403.0
42.2142 361.0
42.281 339.0
42.3479 364.0
42.4147 369.0
42.4815 349.0
42.5484 386.0
42.6152 363.0
42.6821 371.0
42.7489 355.0
42.8158 358.0
42.8826 360.0
42.9495 383.0
43.0163 337.0
43.0831 337.0
43.15 344.0
43.2168 403.0
43.2837 385.0
43.3505 354.0
43.4174 386.0
43.4842 395.0
43.5511 401.0
43.6179 407.0
43.6848 333.0
43.7516 372.0
43.8184 380.0
43.8853 361.0
43.9521 408.0
44.019 392.0
44.0858 372.0
44.1527 379.0
44.2195 381.0
44.2864 337.0
44.3532 365.0
44.4201 372.0
44.4869 362.0
44.5537 391.0
44.6206 378.0
44.6874 384.0
44.7543 379.0
44.8211 398.0
44.888 401.0
44.9548 382.0
45.0217 432.0
45.0885 404.0
45.1553 420.0
45.2222 401.0
45.289 370.0
45.3559 449.0
45.4227 407.0
45.4896 398.0
45.5564 394.0
45.6233 392.0
45.6901 398.0
45.757 420.0
45.8238 391.0
45.8906 394.0
45.9575 378.0
46.0243 373.0
46.0912 410.0
46.158 399.0
46.2249 409.0
46.2917 385.0
46.3586 410.0
46.4254 413.0
46.4922 415.0
46.5591 430.0
46.6259 408.0
46.6928 489.0
46.7596 449.0
46.8265 455.0
46.8933 403.0
46.9602 447.0
47.027 443.0
47.0939 439.0
47.1607 436.0
47.2275 395.0
47.2944 430.0
47.3612 447.0
47.4281 379.0
47.4949 375.0
47.5618 398.0
47.6286 427.0
47.6955 410.0
47.7623 396.0
47.8291 328.0
47.896 355.0
47.9628 381.0
48.0297 376.0
48.0965 410.0
48.1634 356.0
48.2302 384.0
48.2971 341.0
48.3639 351.0
48.4308 406.0
48.4976 401.0
48.5644 372.0
48.6313 366.0
48.6981 369.0
48.765 395.0
48.8318 409.0
48.8987 420.0
48.9655 439.0
49.0324 417.0
49.0992 423.0
49.1661 403.0
49.2329 438.0
49.2997 388.0
49.3666 409.0
49.4334 412.0
49.5003 419.0
49.5671 410.0
49.634 430.0
49.7008 425.0
49.7677 395.0
49.8345 396.0
49.9013 395.0
49.9682 416.0
50.035 402.0
50.1019 399.0
50.1687 411.0
50.2356 358.0
50.3024 383.0
50.3693 375.0
50.4361 364.0
50.503 363.0
50.5698 375.0
50.6366 380.0
50.7035 361.0
50.7703 375.0
50.8372 349.0
50.904 346.0
50.9709 378.0
51.0377 383.0
51.1046 379.0
51.1714 373.0
51.2382 428.0
51.3051 367.0
51.3719 388.0
51.4388 380.0
51.5056 424.0
51.5725 383.0
51.6393 413.0
51.7062 377.0
51.773 358.0
51.8399 362.0
51.9067 382.0
51.9735 418.0
52.0404 395.0
52.1072 364.0
52.1741 391.0
52.2409 364.0
52.3078 371.0
52.3746 381.0
52.4415 370.0
52.5083 380.0
52.5751 391.0
52.642 376.0
52.7088 413.0
52.7757 400.0
52.8425 367.0
52.9094 385.0
52.9762 366.0
53.0431 382.0
53.1099 365.0
53.1768 362.0
53.2436 334.0
53.3104 367.0
53.3773 379.0
53.4441 370.0
53.511 325.0
53.5778 353.0
53.6447 344.0
53.7115 347.0
53.7784 334.0
53.8452 302.0
53.9121 344.0
53.9789 302.0
54.0457 369.0
54.1126 354.0
54.1794 339.0
54.2463 396.0
54.3131 323.0
54.38 311.0
54.4468 344.0
54.5137 345.0
54.5805 345.0
54.6473 366.0
54.7142 342.0
54.781 313.0
54.8479 324.0
54.9147 326.0
54.9816 338.0
55.0484 342.0
55.1153 330.0
55.1821 347.0
55.249 335.0
55.3158 322.0
55.3826 336.0
55.4495 323.0
55.5163 316.0
55.5832 289.0
55.65 280.0
55.7169 305.0
55.7837 321.0
55.8506 329.0
55.9174 309.0
55.9842 326.0
56.0511 298.0
56.1179 321.0
56.1848 308.0
56.2516 326.0
56.3185 304.0
56.3853 339.0
56.4522 311.0
56.519 328.0
56.5859 358.0
56.6527 309.0
56.7195 344.0
56.7864 342.0
56.8532 321.0
56.9201 339.0
56.9869 313.0
57.0538 330.0
57.1206 384.0
57.1875 331.0
57.2543 326.0
57.3212 325.0
57.388 323.0
57.4548 317.0
57.5217 318.0
57.5885 350.0
57.6554 339.0
57.7222 345.0
57.7891 326.0
57.8559 342.0
57.9228 341.0
57.9896 314.0
58.0564 292.0
58.1233 324.0
58.1901 326.0
58.257 311.0
58.3238 317.0
58.3907 311.0
58.4575 325.0
58.5244 352.0
58.5912 336.0
58.6581 341.0
58.7249 317.0
58.7917 325.0
58.8586 320.0
58.9254 322.0
58.9923 316.0
59.0591 303.0
59.126 314.0
59.1928 313.0
59.2597 326.0
59.3265 302.0
59.3933 328.0
59.4602 302.0
59.527 330.0
59.5939 299.0
59.6607 328.0
59.7276 348.0
59.7944 366.0
59.8613 274.0
59.9281 326.0
59.995 355.0
60.0618 318.0
60.1286 323.0
60.1955 290.0
60.2623 334.0
60.3292 333.0
60.396 335.0
60.4629 326.0
60.5297 341.0
60.5966 333.0
60.6634 342.0
60.7302 342.0
60.7971 328.0
60.8639 334.0
60.9308 326.0
60.9976 340.0
61.0645 311.0
61.1313 328.0
61.1982 320.0
61.265 324.0
61.3319 331.0
61.3987 352.0
61.4655 364.0
61.5324 330.0
61.5992 288.0
61.6661 325.0
61.7329 298.0
61.7998 334.0
61.8666 349.0
61.9335 344.0
62.0003 355.0
62.0672 298.0
62.134 318.0
62.2008 316.0
62.2677 351.0
62.3345 337.0
62.4014 320.0
62.4682 353.0
62.5351 340.0
62.6019 324.0
62.6688 372.0
62.7356 335.0
62.8024 311.0
62.8693 368.0
62.9361 351.0
63.003 333.0
63.0698 288.0
63.1367 383.0
63.2035 323.0
63.2704 342.0
63.3372 358.0
63.4041 350.0
63.4709 354.0
63.5377 317.0
63.6046 321.0
63.6714 349.0
63.7383 346.0
63.8051 329.0
63.872 320.0
63.9388 317.0
64.0057 330.0
64.0725 325.0
64.1393 316.0
64.2062 302.0
64.273 333.0
64.3399 357.0
64.4067 344.0
64.4736 361.0
64.5404 350.0
64.6073 338.0
64.6741 346.0
64.741 335.0
64.8078 382.0
64.8746 358.0
64.9415 377.0
65.0083 323.0
65.0752 377.0
65.142 389.0
65.2089 417.0
65.2757 382.0
65.3426 357.0
65.4094 378.0
65.4762 401.0
65.5431 363.0
65.6099 391.0
65.6768 387.0
65.7436 425.0
65.8105 395.0
65.8773 457.0
65.9442 425.0
66.011 398.0
66.0779 427.0
66.1447 383.0
66.2115 443.0
66.2784 451.0
66.3452 394.0
66.4121 387.0
66.4789 457.0
66.5458 400.0
66.6126 431.0
66.6795 392.0
66.7463 402.0
66.8132 402.0
66.88 433.0
66.9468 396.0
67.0137 379.0
67.0805 380.0
67.1474 373.0
67.2142 335.0
67.2811 354.0
67.3479 363.0
67.4148 380.0
67.4816 351.0
67.5484 358.0
67.6153 347.0
67.6821 337.0
67.749 389.0
67.8158 342.0
67.8827 311.0
67.9495 345.0
68.0164 326.0
68.0832 362.0
68.1501 330.0
68.2169 322.0
68.2837 335.0
68.3506 362.0
68.4174 328.0
68.4843 303.0
68.5511 320.0
68.618 328.0
68.6848 329.0
68.7517 339.0
68.8185 315.0
68.8853 307.0
68.9522 278.0
69.019 325.0
69.0859 297.0
69.1527 270.0
69.2196 309.0
69.2864 292.0
69.3533 313.0
69.4201 297.0
69.487 277.0
69.5538 315.0
69.6206 284.0
69.6875 305.0
69.7543 303.0
69.8212 313.0
69.888 299.0
69.9549 290.0
70.0217 322.0
70.0886 301.0
70.1554 298.0
70.2222 297.0
70.2891 300.0
70.3559 309.0
70.4228 283.0
70.4896 315.0
70.5565 317.0
70.6233 328.0
70.6902 309.0
70.757 324.0
70.8239 341.0
70.8907 328.0
70.9575 309.0
71.0244 321.0
71.0912 321.0
71.1581 305.0
71.2249 330.0
71.2918 331.0
71.3586 309.0
71.4255 295.0
71.4923 294.0
71.5592 314.0
71.626 305.0
71.6928 295.0
71.7597 277.0
71.8265 292.0
71.8934 316.0
71.9602 283.0
72.0271 295.0
72.0939 267.0
72.1608 288.0
72.2276 268.0
72.2944 329.0
72.3613 298.0
72.4281 275.0
72.495 278.0
72.5618 307.0
72.6287 278.0
72.6955 308.0
72.7624 269.0
72.8292 287.0
72.8961 306.0
72.9629 280.0
73.0297 285.0
73.0966 268.0
73.1634 273.0
73.2303 302.0
73.2971 289.0
73.364 299.0
73.4308 301.0
73.4977 304.0
73.5645 311.0
73.6313 303.0
73.6982 277.0
73.765 297.0
73.8319 285.0
73.8987 291.0
73.9656 301.0
74.0324 317.0
74.0993 306.0
74.1661 305.0
74.233 290.0
74.2998 316.0
74.3666 309.0
74.4335 291.0
74.5003 317.0
74.5672 282.0
74.634 302.0
74.7009 272.0
74.7677 285.0
74.8346 300.0
74.9014 282.0
74.9683 278.0
75.0351 275.0
75.1019 288.0
75.1688 313.0
75.2356 289.0
75.3025 289.0
75.3693 275.0
75.4362 261.0
75.503 331.0
75.5699 293.0
75.6367 236.0
75.7035 315.0
75.7704 294.0
75.8372 283.0
75.9041 314.0
75.9709 294.0
76.0378 280.0
76.1046 279.0
76.1715 258.0
76.2383 260.0
76.3052 295.0
76.372 280.0
76.4388 278.0
76.5057 311.0
76.5725 273.0
76.6394 258.0
76.7062 298.0
76.7731 315.0
76.8399 273.0
76.9068 311.0
76.9736 317.0
77.0404 285.0
77.1073 260.0
77.1741 278.0
77.241 276.0
77.3078 293.0
77.3747 267.0
77.4415 291.0
77.5084 291.0
77.5752 301.0
77.6421 261.0
77.7089 271.0
77.7757 288.0
77.8426 315.0
77.9094 275.0
77.9763 320.0
78.0431 305.0
78.11 255.0
78.1768 285.0
78.2437 301.0
78.3105 287.0
78.3773 315.0
78.4442 313.0
78.511 293.0
78.5779 266.0
78.6447 307.0
78.7116 305.0
78.7784 282.0
78.8453 297.0
78.9121 263.0
78.979 301.0
79.0458 277.0
79.1126 287.0
79.1795 295.0
79.2463 316.0
79.3132 315.0
79.38 271.0
79.4469 284.0
79.5137 291.0
79.5806 306.0
79.6474 263.0
79.7143 288.0
79.7811 284.0
79.8479 274.0
79.9148 288.0
79.9816 246.0
80.0485 276.0
80.1153 247.0
80.1822 283.0
80.249 264.0
80.3159 294.0
80.3827 263.0
80.4495 251.0
80.5164 263.0
80.5832 280.0
80.6501 273.0
80.7169 287.0
80.7838 247.0
80.8506 256.0
80.9175 304.0
80.9843 263.0
81.0512 229.0
81.118 232.0
81.1848 244.0
81.2517 243.0
81.3185 254.0
81.3854 216.0
81.4522 239.0
81.5191 248.0
81.5859 258.0
81.6528 239.0
81.7196 231.0
81.7864 214.0
81.8533 236.0
81.9201 240.0
81.987 250.0
82.0538 227.0
82.1207 235.0
82.1875 251.0
82.2544 231.0
82.3212 229.0
82.3881 217.0
82.4549 227.0
82.5217 215.0
82.5886 210.0
82.6554 210.0
82.7223 240.0
82.7891 224.0
82.856 235.0
82.9228 242.0
82.9897 233.0
83.0565 241.0
83.1233 216.0
83.1902 239.0
83.257 215.0
83.3239 197.0
83.3907 199.0
83.4576 214.0
83.5244 210.0
83.5913 230.0
83.6581 203.0
83.725 214.0
83.7918 196.0
83.8586 228.0
83.9255 197.0
83.9923 200.0
84.0592 189.0
84.126 211.0
84.1929 192.0
84.2597 208.0
84.3266 223.0
84.3934 166.0
84.4603 170.0
84.5271 185.0
84.5939 205.0
84.6608 183.0
84.7276 214.0
84.7945 175.0
84.8613 200.0
84.9282 197.0
84.995 207.0
85.0619 209.0
85.1287 200.0
85.1955 196.0
85.2624 176.0
85.3292 179.0
85.3961 172.0
85.4629 191.0
85.5298 174.0
85.5966 201.0
85.6635 213.0
85.7303 194.0
85.7972 203.0
85.864 204.0
85.9308 175.0
85.9977 178.0
86.0645 193.0
86.1314 162.0
86.1982 175.0
86.2651 206.0
86.3319 184.0
86.3988 199.0
86.4656 161.0
86.5324 178.0
86.5993 193.0
86.6661 172.0
86.733 207.0
86.7998 199.0
86.8667 176.0
86.9335 188.0
87.0004 177.0
87.0672 175.0
87.1341 168.0
87.2009 153.0
87.2677 189.0
87.3346 158.0
87.4014 162.0
87.4683 184.0
87.5351 175.0
87.602 188.0
87.6688 153.0
87.7357 157.0
87.8025 160.0
87.8693 143.0
87.9362 184.0
88.003 165.0
88.0699 175.0
88.1367 165.0
88.2036 166.0
88.2704 166.0
88.3373 177.0
88.4041 169.0
88.471 143.0
88.5378 142.0
88.6046 170.0
88.6715 151.0
88.7383 151.0
88.8052 169.0
88.872 163.0
88.9389 182.0
89.0057 186.0
89.0726 152.0
89.1394 165.0
89.2063 175.0
89.2731 165.0
89.3399 188.0
89.4068 164.0
89.4736 141.0
89.5405 147.0
89.6073 170.0
89.6742 174.0
89.741 185.0
89.8079 160.0
89.8747 161.0
89.9415 173.0