File: code/XRD_Analysis/External Sources/Fabian/20240223_RhCo3_MCM-41.xy
4.98146 4602.0
5.0483 4298.0
5.11515 3935.0
5.18199 3527.0
5.24884 3219.0
5.31568 3061.0
5.38253 2846.0
5.44937 2793.0
5.51622 2733.0
5.58306 2706.0
5.64991 2551.0
5.71675 2537.0
5.7836 2549.0
5.85044 2495.0
5.91729 2508.0
5.98413 2539.0
6.05098 2443.0
6.11782 2534.0
6.18467 2501.0
6.25151 2488.0
6.31836 2554.0
6.3852 2546.0
6.45205 2417.0
6.51889 2319.0
6.58574 2358.0
6.65258 2206.0
6.71943 2134.0
6.78627 2119.0
6.85312 2021.0
6.91996 2033.0
6.98681 1953.0
7.05365 1947.0
7.1205 1985.0
7.18734 1900.0
7.25419 1837.0
7.32103 1834.0
7.38788 1886.0
7.45472 1877.0
7.52157 1763.0
7.58841 1803.0
7.65526 1730.0
7.7221 1699.0
7.78895 1677.0
7.85579 1644.0
7.92264 1641.0
7.98948 1618.0
8.05633 1586.0
8.12317 1612.0
8.19002 1620.0
8.25686 1537.0
8.32371 1509.0
8.39055 1490.0
8.4574 1564.0
8.52424 1494.0
8.59109 1446.0
8.65793 1490.0
8.72478 1555.0
8.79162 1453.0
8.85847 1470.0
8.92532 1501.0
8.99216 1490.0
9.05901 1409.0
9.12585 1380.0
9.1927 1403.0
9.25954 1345.0
9.32639 1400.0
9.39323 1403.0
9.46008 1399.0
9.52692 1370.0
9.59377 1344.0
9.66061 1395.0
9.72746 1413.0
9.7943 1406.0
9.86115 1262.0
9.92799 1351.0
9.99484 1368.0
10.0617 1296.0
10.1285 1301.0
10.1954 1292.0
10.2622 1277.0
10.3291 1302.0
10.3959 1310.0
10.4628 1354.0
10.5296 1293.0
10.5964 1261.0
10.6633 1303.0
10.7301 1298.0
10.797 1325.0
10.8638 1293.0
10.9307 1326.0
10.9975 1259.0
11.0644 1266.0
11.1312 1247.0
11.198 1256.0
11.2649 1281.0
11.3317 1257.0
11.3986 1319.0
11.4654 1221.0
11.5323 1286.0
11.5991 1234.0
11.666 1259.0
11.7328 1261.0
11.7997 1275.0
11.8665 1315.0
11.9333 1271.0
12.0002 1243.0
12.067 1207.0
12.1339 1262.0
12.2007 1231.0
12.2676 1201.0
12.3344 1215.0
12.4013 1190.0
12.4681 1252.0
12.5349 1210.0
12.6018 1243.0
12.6686 1229.0
12.7355 1276.0
12.8023 1325.0
12.8692 1242.0
12.936 1223.0
13.0029 1194.0
13.0697 1242.0
13.1366 1198.0
13.2034 1272.0
13.2702 1165.0
13.3371 1194.0
13.4039 1229.0
13.4708 1257.0
13.5376 1238.0
13.6045 1235.0
13.6713 1225.0
13.7382 1219.0
13.805 1169.0
13.8719 1197.0
13.9387 1314.0
14.0055 1268.0
14.0724 1271.0
14.1392 1262.0
14.2061 1286.0
14.2729 1301.0
14.3398 1260.0
14.4066 1247.0
14.4735 1347.0
14.5403 1294.0
14.6071 1378.0
14.674 1330.0
14.7408 1310.0
14.8077 1338.0
14.8745 1245.0
14.9414 1328.0
15.0082 1268.0
15.0751 1314.0
15.1419 1330.0
15.2088 1375.0
15.2756 1302.0
15.3424 1248.0
15.4093 1357.0
15.4761 1362.0
15.543 1365.0
15.6098 1310.0
15.6767 1385.0
15.7435 1344.0
15.8104 1328.0
15.8772 1347.0
15.944 1382.0
16.0109 1304.0
16.0777 1323.0
16.1446 1367.0
16.2114 1425.0
16.2783 1463.0
16.3451 1440.0
16.412 1390.0
16.4788 1411.0
16.5457 1430.0
16.6125 1469.0
16.6793 1397.0
16.7462 1422.0
16.813 1444.0
16.8799 1482.0
16.9467 1471.0
17.0136 1429.0
17.0804 1529.0
17.1473 1485.0
17.2141 1506.0
17.2809 1602.0
17.3478 1591.0
17.4146 1503.0
17.4815 1468.0
17.5483 1522.0
17.6152 1533.0
17.682 1501.0
17.7489 1611.0
17.8157 1553.0
17.8826 1619.0
17.9494 1564.0
18.0162 1628.0
18.0831 1573.0
18.1499 1646.0
18.2168 1597.0
18.2836 1682.0
18.3505 1647.0
18.4173 1696.0
18.4842 1674.0
18.551 1652.0
18.6179 1659.0
18.6847 1710.0
18.7515 1624.0
18.8184 1815.0
18.8852 1696.0
18.9521 1703.0
19.0189 1787.0
19.0858 1777.0
19.1526 1791.0
19.2195 1759.0
19.2863 1813.0
19.3531 1776.0
19.42 1802.0
19.4868 1779.0
19.5537 1867.0
19.6205 1853.0
19.6874 1790.0
19.7542 1789.0
19.8211 1782.0
19.8879 1901.0
19.9548 1890.0
20.0216 1857.0
20.0884 1870.0
20.1553 1841.0
20.2221 1899.0
20.289 1963.0
20.3558 1915.0
20.4227 1879.0
20.4895 1933.0
20.5564 1922.0
20.6232 2005.0
20.69 1908.0
20.7569 2024.0
20.8237 2042.0
20.8906 1988.0
20.9574 2038.0
21.0243 2044.0
21.0911 1932.0
21.158 1979.0
21.2248 2052.0
21.2917 1990.0
21.3585 2052.0
21.4253 2160.0
21.4922 2052.0
21.559 1996.0
21.6259 2125.0
21.6927 2033.0
21.7596 2030.0
21.8264 2033.0
21.8933 2085.0
21.9601 2159.0
22.0269 2099.0
22.0938 2013.0
22.1606 2121.0
22.2275 2040.0
22.2943 2077.0
22.3612 2067.0
22.428 2179.0
22.4949 2085.0
22.5617 2130.0
22.6286 2036.0
22.6954 1996.0
22.7622 2067.0
22.8291 2136.0
22.8959 2202.0
22.9628 2078.0
23.0296 2039.0
23.0965 2131.0
23.1633 1934.0
23.2302 2082.0
23.297 2116.0
23.3639 2052.0
23.4307 2151.0
23.4975 2177.0
23.5644 2038.0
23.6312 2175.0
23.6981 2119.0
23.7649 2083.0
23.8318 2095.0
23.8986 1999.0
23.9655 2119.0
24.0323 2011.0
24.0991 2008.0
24.166 2051.0
24.2328 2086.0
24.2997 2010.0
24.3665 2084.0
24.4334 1938.0
24.5002 2072.0
24.5671 2022.0
24.6339 2012.0
24.7008 2032.0
24.7676 1973.0
24.8344 1910.0
24.9013 1933.0
24.9681 2035.0
25.035 1992.0
25.1018 2003.0
25.1687 1952.0
25.2355 1944.0
25.3024 1940.0
25.3692 1977.0
25.436 1878.0
25.5029 1906.0
25.5697 1940.0
25.6366 1847.0
25.7034 1995.0
25.7703 1888.0
25.8371 1834.0
25.904 1901.0
25.9708 1866.0
26.0377 1761.0
26.1045 1809.0
26.1713 1900.0
26.2382 1785.0
26.305 1741.0
26.3719 1807.0
26.4387 1874.0
26.5056 1830.0
26.5724 1725.0
26.6393 1839.0
26.7061 1756.0
26.773 1737.0
26.8398 1786.0
26.9066 1710.0
26.9735 1758.0
27.0403 1761.0
27.1072 1665.0
27.174 1674.0
27.2409 1759.0
27.3077 1675.0
27.3746 1681.0
27.4414 1791.0
27.5082 1604.0
27.5751 1685.0
27.6419 1657.0
27.7088 1663.0
27.7756 1673.0
27.8425 1572.0
27.9093 1576.0
27.9762 1597.0
28.043 1571.0
28.1099 1597.0
28.1767 1609.0
28.2435 1546.0
28.3104 1654.0
28.3772 1582.0
28.4441 1562.0
28.5109 1538.0
28.5778 1629.0
28.6446 1553.0
28.7115 1501.0
28.7783 1544.0
28.8451 1456.0
28.912 1490.0
28.9788 1469.0
29.0457 1437.0
29.1125 1508.0
29.1794 1521.0
29.2462 1408.0
29.3131 1461.0
29.3799 1401.0
29.4468 1447.0
29.5136 1443.0
29.5804 1493.0
29.6473 1370.0
29.7141 1396.0
29.781 1402.0
29.8478 1492.0
29.9147 1403.0
29.9815 1435.0
30.0484 1450.0
30.1152 1415.0
30.182 1461.0
30.2489 1349.0
30.3157 1453.0
30.3826 1305.0
30.4494 1399.0
30.5163 1412.0
30.5831 1407.0
30.65 1368.0
30.7168 1398.0
30.7837 1426.0
30.8505 1370.0
30.9173 1337.0
30.9842 1425.0
31.051 1305.0
31.1179 1319.0
31.1847 1270.0
31.2516 1266.0
31.3184 1328.0
31.3853 1321.0
31.4521 1252.0
31.519 1318.0
31.5858 1371.0
31.6526 1227.0
31.7195 1290.0
31.7863 1321.0
31.8532 1279.0
31.92 1279.0
31.9869 1246.0
32.0537 1302.0
32.1206 1209.0
32.1874 1241.0
32.2542 1317.0
32.3211 1197.0
32.3879 1267.0
32.4548 1204.0
32.5216 1207.0
32.5885 1251.0
32.6553 1197.0
32.7222 1201.0
32.789 1174.0
32.8559 1222.0
32.9227 1240.0
32.9895 1197.0
33.0564 1192.0
33.1232 1164.0
33.1901 1173.0
33.2569 1222.0
33.3238 1165.0
33.3906 1197.0
33.4575 1181.0
33.5243 1166.0
33.5911 1175.0
33.658 1141.0
33.7248 1145.0
33.7917 1148.0
33.8585 1181.0
33.9254 1166.0
33.9922 1179.0
34.0591 1197.0
34.1259 1208.0
34.1928 1161.0
34.2596 1179.0
34.3264 1218.0
34.3933 1208.0
34.4601 1180.0
34.527 1181.0
34.5938 1133.0
34.6607 1144.0
34.7275 1164.0
34.7944 1079.0
34.8612 1203.0
34.928 1188.0
34.9949 1227.0
35.0617 1143.0
35.1286 1183.0
35.1954 1173.0
35.2623 1205.0
35.3291 1245.0
35.396 1147.0
35.4628 1218.0
35.5297 1172.0
35.5965 1099.0
35.6633 1162.0
35.7302 1169.0
35.797 1105.0
35.8639 1153.0
35.9307 1072.0
35.9976 1187.0
36.0644 1161.0
36.1313 1167.0
36.1981 1134.0
36.265 1068.0
36.3318 1134.0
36.3986 1154.0
36.4655 1166.0
36.5323 1088.0
36.5992 1098.0
36.666 1123.0
36.7329 1112.0
36.7997 1097.0
36.8666 1081.0
36.9334 1096.0
37.0002 1089.0
37.0671 1119.0
37.1339 1074.0
37.2008 1064.0
37.2676 1072.0
37.3345 1102.0
37.4013 1076.0
37.4682 1069.0
37.535 1033.0
37.6019 1076.0
37.6687 1095.0
37.7355 1021.0
37.8024 1082.0
37.8692 1122.0
37.9361 1071.0
38.0029 1047.0
38.0698 1020.0
38.1366 1079.0
38.2035 1021.0
38.2703 980.0
38.3371 1010.0
38.404 1032.0
38.4708 1023.0
38.5377 1045.0
38.6045 1025.0
38.6714 1039.0
38.7382 1002.0
38.8051 1006.0
38.8719 997.0
38.9388 997.0
39.0056 1036.0
39.0724 972.0
39.1393 1005.0
39.2061 953.0
39.273 985.0
39.3398 980.0
39.4067 1019.0
39.4735 1002.0
39.5404 1004.0
39.6072 979.0
39.6741 972.0
39.7409 994.0
39.8077 1021.0
39.8746 965.0
39.9414 982.0
40.0083 965.0
40.0751 911.0
40.142 922.0
40.2088 988.0
40.2757 954.0
40.3425 903.0
40.4093 1006.0
40.4762 939.0
40.543 990.0
40.6099 1018.0
40.6767 986.0
40.7436 992.0
40.8104 913.0
40.8773 976.0
40.9441 942.0
41.011 1009.0
41.0778 896.0
41.1446 971.0
41.2115 938.0
41.2783 1001.0
41.3452 947.0
41.412 930.0
41.4789 943.0
41.5457 954.0
41.6126 924.0
41.6794 958.0
41.7462 962.0
41.8131 908.0
41.8799 869.0
41.9468 922.0
42.0136 1016.0
42.0805 939.0
42.1473 975.0
42.2142 911.0
42.281 960.0
42.3479 982.0
42.4147 1002.0
42.4815 957.0
42.5484 937.0
42.6152 902.0
42.6821 949.0
42.7489 912.0
42.8158 918.0
42.8826 966.0
42.9495 924.0
43.0163 944.0
43.0831 928.0
43.15 998.0
43.2168 960.0
43.2837 899.0
43.3505 957.0
43.4174 996.0
43.4842 988.0
43.5511 931.0
43.6179 938.0
43.6848 913.0
43.7516 949.0
43.8184 965.0
43.8853 900.0
43.9521 981.0
44.019 877.0
44.0858 948.0
44.1527 916.0
44.2195 950.0
44.2864 935.0
44.3532 914.0
44.4201 924.0
44.4869 935.0
44.5537 892.0
44.6206 942.0
44.6874 923.0
44.7543 869.0
44.8211 909.0
44.888 955.0
44.9548 915.0
45.0217 895.0
45.0885 865.0
45.1553 895.0
45.2222 899.0
45.289 906.0
45.3559 914.0
45.4227 925.0
45.4896 881.0
45.5564 895.0
45.6233 919.0
45.6901 949.0
45.757 982.0
45.8238 913.0
45.8906 982.0
45.9575 970.0
46.0243 857.0
46.0912 916.0
46.158 893.0
46.2249 913.0
46.2917 882.0
46.3586 969.0
46.4254 899.0
46.4922 880.0
46.5591 897.0
46.6259 876.0
46.6928 900.0
46.7596 878.0
46.8265 906.0
46.8933 866.0
46.9602 880.0
47.027 932.0
47.0939 908.0
47.1607 908.0
47.2275 885.0
47.2944 910.0
47.3612 915.0
47.4281 877.0
47.4949 893.0
47.5618 957.0
47.6286 937.0
47.6955 918.0
47.7623 887.0
47.8291 920.0
47.896 839.0
47.9628 840.0
48.0297 886.0
48.0965 876.0
48.1634 925.0
48.2302 841.0
48.2971 928.0
48.3639 842.0
48.4308 882.0
48.4976 897.0
48.5644 813.0
48.6313 898.0
48.6981 851.0
48.765 828.0
48.8318 891.0
48.8987 943.0
48.9655 854.0
49.0324 867.0
49.0992 913.0
49.1661 868.0
49.2329 899.0
49.2997 851.0
49.3666 900.0
49.4334 770.0
49.5003 900.0
49.5671 852.0
49.634 819.0
49.7008 880.0
49.7677 799.0
49.8345 899.0
49.9013 856.0
49.9682 841.0
50.035 912.0
50.1019 853.0
50.1687 836.0
50.2356 813.0
50.3024 888.0
50.3693 868.0
50.4361 821.0
50.503 876.0
50.5698 863.0
50.6366 854.0
50.7035 859.0
50.7703 884.0
50.8372 842.0
50.904 859.0
50.9709 877.0
51.0377 872.0
51.1046 841.0
51.1714 833.0
51.2382 903.0
51.3051 837.0
51.3719 819.0
51.4388 836.0
51.5056 857.0
51.5725 855.0
51.6393 862.0
51.7062 882.0
51.773 841.0
51.8399 814.0
51.9067 794.0
51.9735 801.0
52.0404 812.0
52.1072 852.0
52.1741 801.0
52.2409 822.0
52.3078 803.0
52.3746 828.0
52.4415 838.0
52.5083 866.0
52.5751 825.0
52.642 849.0
52.7088 870.0
52.7757 793.0
52.8425 822.0
52.9094 804.0
52.9762 826.0
53.0431 836.0
53.1099 865.0
53.1768 835.0
53.2436 841.0
53.3104 852.0
53.3773 821.0
53.4441 859.0
53.511 828.0
53.5778 783.0
53.6447 801.0
53.7115 813.0
53.7784 773.0
53.8452 802.0
53.9121 887.0
53.9789 823.0
54.0457 810.0
54.1126 753.0
54.1794 812.0
54.2463 884.0
54.3131 813.0
54.38 832.0
54.4468 808.0
54.5137 783.0
54.5805 853.0
54.6473 748.0
54.7142 793.0
54.781 880.0
54.8479 798.0
54.9147 789.0
54.9816 805.0
55.0484 803.0
55.1153 806.0
55.1821 799.0
55.249 752.0
55.3158 838.0
55.3826 815.0
55.4495 789.0
55.5163 876.0
55.5832 748.0
55.65 800.0
55.7169 847.0
55.7837 839.0
55.8506 802.0
55.9174 803.0
55.9842 791.0
56.0511 849.0
56.1179 763.0
56.1848 761.0
56.2516 828.0
56.3185 794.0
56.3853 851.0
56.4522 746.0
56.519 781.0
56.5859 806.0
56.6527 822.0
56.7195 853.0
56.7864 799.0
56.8532 837.0
56.9201 808.0
56.9869 832.0
57.0538 845.0
57.1206 804.0
57.1875 825.0
57.2543 786.0
57.3212 815.0
57.388 803.0
57.4548 818.0
57.5217 850.0
57.5885 824.0
57.6554 792.0
57.7222 785.0
57.7891 791.0
57.8559 838.0
57.9228 821.0
57.9896 848.0
58.0564 813.0
58.1233 838.0
58.1901 824.0
58.257 860.0
58.3238 826.0
58.3907 828.0
58.4575 784.0
58.5244 844.0
58.5912 824.0
58.6581 804.0
58.7249 792.0
58.7917 839.0
58.8586 788.0
58.9254 841.0
58.9923 776.0
59.0591 804.0
59.126 786.0
59.1928 798.0
59.2597 812.0
59.3265 855.0
59.3933 869.0
59.4602 903.0
59.527 851.0
59.5939 824.0
59.6607 822.0
59.7276 834.0
59.7944 809.0
59.8613 838.0
59.9281 792.0
59.995 805.0
60.0618 802.0
60.1286 793.0
60.1955 815.0
60.2623 849.0
60.3292 785.0
60.396 801.0
60.4629 805.0
60.5297 837.0
60.5966 785.0
60.6634 825.0
60.7302 824.0
60.7971 820.0
60.8639 851.0
60.9308 820.0
60.9976 818.0
61.0645 819.0
61.1313 786.0
61.1982 822.0
61.265 784.0
61.3319 830.0
61.3987 721.0
61.4655 818.0
61.5324 803.0
61.5992 857.0
61.6661 799.0
61.7329 801.0
61.7998 815.0
61.8666 771.0
61.9335 825.0
62.0003 820.0
62.0672 789.0
62.134 785.0
62.2008 795.0
62.2677 830.0
62.3345 801.0
62.4014 812.0
62.4682 831.0
62.5351 806.0
62.6019 795.0
62.6688 810.0
62.7356 842.0
62.8024 730.0
62.8693 786.0
62.9361 775.0
63.003 813.0
63.0698 837.0
63.1367 784.0
63.2035 755.0
63.2704 806.0
63.3372 805.0
63.4041 822.0
63.4709 838.0
63.5377 808.0
63.6046 776.0
63.6714 810.0
63.7383 806.0
63.8051 814.0
63.872 807.0
63.9388 813.0
64.0057 814.0
64.0725 771.0
64.1393 846.0
64.2062 789.0
64.273 769.0
64.3399 768.0
64.4067 828.0
64.4736 819.0
64.5404 793.0
64.6073 737.0
64.6741 795.0
64.741 742.0
64.8078 837.0
64.8746 784.0
64.9415 806.0
65.0083 731.0
65.0752 800.0
65.142 739.0
65.2089 835.0
65.2757 800.0
65.3426 778.0
65.4094 801.0
65.4762 786.0
65.5431 782.0
65.6099 750.0
65.6768 823.0
65.7436 778.0
65.8105 818.0
65.8773 857.0
65.9442 804.0
66.011 764.0
66.0779 799.0
66.1447 795.0
66.2115 778.0
66.2784 782.0
66.3452 735.0
66.4121 738.0
66.4789 775.0
66.5458 745.0
66.6126 755.0
66.6795 800.0
66.7463 850.0
66.8132 776.0
66.88 818.0
66.9468 746.0
67.0137 747.0
67.0805 724.0
67.1474 781.0
67.2142 751.0
67.2811 754.0
67.3479 772.0
67.4148 792.0
67.4816 805.0
67.5484 775.0
67.6153 770.0
67.6821 790.0
67.749 734.0
67.8158 775.0
67.8827 762.0
67.9495 761.0
68.0164 745.0
68.0832 752.0
68.1501 776.0
68.2169 753.0
68.2837 717.0
68.3506 747.0
68.4174 807.0
68.4843 781.0
68.5511 730.0
68.618 725.0
68.6848 781.0
68.7517 728.0
68.8185 768.0
68.8853 717.0
68.9522 735.0
69.019 738.0
69.0859 768.0
69.1527 772.0
69.2196 745.0
69.2864 744.0
69.3533 699.0
69.4201 775.0
69.487 774.0
69.5538 756.0
69.6206 742.0
69.6875 756.0
69.7543 757.0
69.8212 778.0
69.888 735.0
69.9549 744.0
70.0217 747.0
70.0886 774.0
70.1554 750.0
70.2222 710.0
70.2891 701.0
70.3559 736.0
70.4228 745.0
70.4896 758.0
70.5565 730.0
70.6233 744.0
70.6902 680.0
70.757 707.0
70.8239 704.0
70.8907 784.0
70.9575 712.0
71.0244 760.0
71.0912 748.0
71.1581 717.0
71.2249 751.0
71.2918 737.0
71.3586 770.0
71.4255 734.0
71.4923 758.0
71.5592 751.0
71.626 729.0
71.6928 734.0
71.7597 715.0
71.8265 727.0
71.8934 723.0
71.9602 732.0
72.0271 654.0
72.0939 708.0
72.1608 740.0
72.2276 698.0
72.2944 746.0
72.3613 708.0
72.4281 734.0
72.495 706.0
72.5618 719.0
72.6287 683.0
72.6955 698.0
72.7624 693.0
72.8292 675.0
72.8961 703.0
72.9629 712.0
73.0297 669.0
73.0966 676.0
73.1634 728.0
73.2303 705.0
73.2971 745.0
73.364 694.0
73.4308 748.0
73.4977 751.0
73.5645 668.0
73.6313 722.0
73.6982 754.0
73.765 648.0
73.8319 720.0
73.8987 694.0
73.9656 694.0
74.0324 662.0
74.0993 757.0
74.1661 738.0
74.233 700.0
74.2998 716.0
74.3666 748.0
74.4335 680.0
74.5003 681.0
74.5672 731.0
74.634 727.0
74.7009 737.0
74.7677 647.0
74.8346 690.0
74.9014 754.0
74.9683 766.0
75.0351 732.0
75.1019 679.0
75.1688 676.0
75.2356 704.0
75.3025 732.0
75.3693 742.0
75.4362 750.0
75.503 751.0
75.5699 705.0
75.6367 648.0
75.7035 685.0
75.7704 681.0
75.8372 721.0
75.9041 701.0
75.9709 691.0
76.0378 719.0
76.1046 700.0
76.1715 698.0
76.2383 683.0
76.3052 646.0
76.372 707.0
76.4388 676.0
76.5057 665.0
76.5725 717.0
76.6394 686.0
76.7062 705.0
76.7731 709.0
76.8399 709.0
76.9068 722.0
76.9736 681.0
77.0404 691.0
77.1073 712.0
77.1741 623.0
77.241 661.0
77.3078 683.0
77.3747 668.0
77.4415 677.0
77.5084 692.0
77.5752 746.0
77.6421 669.0
77.7089 656.0
77.7757 675.0
77.8426 631.0
77.9094 654.0
77.9763 675.0
78.0431 688.0
78.11 750.0
78.1768 664.0
78.2437 666.0
78.3105 721.0
78.3773 649.0
78.4442 692.0
78.511 660.0
78.5779 705.0
78.6447 688.0
78.7116 652.0
78.7784 662.0
78.8453 660.0
78.9121 700.0
78.979 679.0
79.0458 657.0
79.1126 676.0
79.1795 677.0
79.2463 630.0
79.3132 685.0
79.38 656.0
79.4469 637.0
79.5137 669.0
79.5806 686.0
79.6474 670.0
79.7143 623.0
79.7811 673.0
79.8479 669.0
79.9148 643.0
79.9816 674.0
80.0485 694.0
80.1153 622.0
80.1822 620.0
80.249 686.0
80.3159 641.0
80.3827 626.0
80.4495 649.0
80.5164 638.0
80.5832 693.0
80.6501 634.0
80.7169 629.0
80.7838 618.0
80.8506 657.0
80.9175 616.0
80.9843 636.0
81.0512 695.0
81.118 602.0
81.1848 642.0
81.2517 641.0
81.3185 689.0
81.3854 676.0
81.4522 691.0
81.5191 603.0
81.5859 654.0
81.6528 648.0
81.7196 681.0
81.7864 636.0
81.8533 645.0
81.9201 633.0
81.987 669.0
82.0538 647.0
82.1207 633.0
82.1875 664.0
82.2544 697.0
82.3212 614.0
82.3881 614.0
82.4549 669.0
82.5217 633.0
82.5886 659.0
82.6554 627.0
82.7223 632.0
82.7891 611.0
82.856 653.0
82.9228 639.0
82.9897 628.0
83.0565 634.0
83.1233 650.0
83.1902 620.0
83.257 574.0
83.3239 587.0
83.3907 653.0
83.4576 575.0
83.5244 606.0
83.5913 623.0
83.6581 618.0
83.725 635.0
83.7918 628.0
83.8586 594.0
83.9255 603.0
83.9923 619.0
84.0592 564.0
84.126 615.0
84.1929 667.0
84.2597 617.0
84.3266 616.0
84.3934 617.0
84.4603 580.0
84.5271 609.0
84.5939 598.0
84.6608 603.0
84.7276 610.0
84.7945 620.0
84.8613 626.0
84.9282 563.0
84.995 570.0
85.0619 588.0
85.1287 581.0
85.1955 590.0
85.2624 615.0
85.3292 605.0
85.3961 599.0
85.4629 542.0
85.5298 605.0
85.5966 574.0
85.6635 581.0
85.7303 604.0
85.7972 600.0
85.864 589.0
85.9308 613.0
85.9977 617.0
86.0645 613.0
86.1314 589.0
86.1982 598.0
86.2651 563.0
86.3319 646.0
86.3988 572.0
86.4656 603.0
86.5324 586.0
86.5993 614.0
86.6661 600.0
86.733 588.0
86.7998 619.0
86.8667 578.0
86.9335 576.0
87.0004 606.0
87.0672 592.0
87.1341 591.0
87.2009 544.0
87.2677 581.0
87.3346 601.0
87.4014 579.0
87.4683 582.0
87.5351 583.0
87.602 630.0
87.6688 584.0
87.7357 643.0
87.8025 569.0
87.8693 518.0
87.9362 585.0
88.003 612.0
88.0699 541.0
88.1367 601.0
88.2036 596.0
88.2704 570.0
88.3373 580.0
88.4041 582.0
88.471 559.0
88.5378 610.0
88.6046 585.0
88.6715 600.0
88.7383 573.0
88.8052 588.0
88.872 583.0
88.9389 621.0
89.0057 539.0
89.0726 600.0
89.1394 560.0
89.2063 595.0
89.2731 543.0
89.3399 584.0
89.4068 583.0
89.4736 536.0
89.5405 558.0
89.6073 578.0
89.6742 538.0
89.741 526.0
89.8079 571.0
89.8747 580.0
89.9415 606.0