File: code/XRD_Analysis/External Sources/Fabian/20240402_RUB-50_notcalc_lessmaterial.xy
4.98146 1267.0
5.0483 1151.0
5.11515 1160.0
5.18199 1168.0
5.24884 1210.0
5.31568 1137.0
5.38253 1137.0
5.44937 1099.0
5.51622 1111.0
5.58306 1116.0
5.64991 1094.0
5.71675 1111.0
5.7836 1153.0
5.85044 1113.0
5.91729 1120.0
5.98413 1051.0
6.05098 1094.0
6.11782 1153.0
6.18467 1167.0
6.25151 1231.0
6.31836 1312.0
6.3852 1432.0
6.45205 1528.0
6.51889 1586.0
6.58574 1742.0
6.65258 1875.0
6.71943 1857.0
6.78627 1926.0
6.85312 1749.0
6.91996 1757.0
6.98681 1678.0
7.05365 1761.0
7.1205 1975.0
7.18734 2370.0
7.25419 2590.0
7.32103 2068.0
7.38788 1433.0
7.45472 1144.0
7.52157 1021.0
7.58841 942.0
7.65526 930.0
7.7221 972.0
7.78895 1000.0
7.85579 1144.0
7.92264 1286.0
7.98948 1239.0
8.05633 1400.0
8.12317 1461.0
8.19002 1409.0
8.25686 1544.0
8.32371 1470.0
8.39055 1502.0
8.4574 1511.0
8.52424 1570.0
8.59109 1505.0
8.65793 1551.0
8.72478 1476.0
8.79162 1460.0
8.85847 1471.0
8.92532 1434.0
8.99216 1534.0
9.05901 1397.0
9.12585 1438.0
9.1927 1413.0
9.25954 1373.0
9.32639 1362.0
9.39323 1263.0
9.46008 1226.0
9.52692 1244.0
9.59377 1201.0
9.66061 1207.0
9.72746 1094.0
9.7943 1036.0
9.86115 1051.0
9.92799 994.0
9.99484 992.0
10.0617 911.0
10.1285 837.0
10.1954 873.0
10.2622 816.0
10.3291 757.0
10.3959 742.0
10.4628 735.0
10.5296 656.0
10.5964 657.0
10.6633 648.0
10.7301 617.0
10.797 576.0
10.8638 623.0
10.9307 528.0
10.9975 529.0
11.0644 504.0
11.1312 529.0
11.198 503.0
11.2649 521.0
11.3317 482.0
11.3986 477.0
11.4654 470.0
11.5323 487.0
11.5991 462.0
11.666 473.0
11.7328 469.0
11.7997 462.0
11.8665 492.0
11.9333 443.0
12.0002 461.0
12.067 454.0
12.1339 467.0
12.2007 483.0
12.2676 469.0
12.3344 473.0
12.4013 541.0
12.4681 497.0
12.5349 564.0
12.6018 578.0
12.6686 580.0
12.7355 634.0
12.8023 592.0
12.8692 653.0
12.936 663.0
13.0029 680.0
13.0697 664.0
13.1366 617.0
13.2034 657.0
13.2702 651.0
13.3371 673.0
13.4039 678.0
13.4708 691.0
13.5376 719.0
13.6045 658.0
13.6713 650.0
13.7382 691.0
13.805 651.0
13.8719 594.0
13.9387 554.0
14.0055 566.0
14.0724 549.0
14.1392 586.0
14.2061 584.0
14.2729 620.0
14.3398 638.0
14.4066 722.0
14.4735 709.0
14.5403 690.0
14.6071 652.0
14.674 664.0
14.7408 632.0
14.8077 647.0
14.8745 629.0
14.9414 660.0
15.0082 609.0
15.0751 595.0
15.1419 629.0
15.2088 602.0
15.2756 623.0
15.3424 605.0
15.4093 643.0
15.4761 580.0
15.543 658.0
15.6098 677.0
15.6767 570.0
15.7435 638.0
15.8104 612.0
15.8772 605.0
15.944 633.0
16.0109 641.0
16.0777 582.0
16.1446 606.0
16.2114 592.0
16.2783 606.0
16.3451 570.0
16.412 601.0
16.4788 549.0
16.5457 570.0
16.6125 598.0
16.6793 518.0
16.7462 542.0
16.813 508.0
16.8799 516.0
16.9467 435.0
17.0136 454.0
17.0804 487.0
17.1473 422.0
17.2141 419.0
17.2809 489.0
17.3478 455.0
17.4146 448.0
17.4815 430.0
17.5483 491.0
17.6152 467.0
17.682 438.0
17.7489 483.0
17.8157 457.0
17.8826 519.0
17.9494 513.0
18.0162 558.0
18.0831 516.0
18.1499 582.0
18.2168 545.0
18.2836 559.0
18.3505 628.0
18.4173 596.0
18.4842 588.0
18.551 732.0
18.6179 690.0
18.6847 788.0
18.7515 730.0
18.8184 828.0
18.8852 928.0
18.9521 988.0
19.0189 1045.0
19.0858 1073.0
19.1526 1105.0
19.2195 1121.0
19.2863 1122.0
19.3531 1200.0
19.42 1287.0
19.4868 1412.0
19.5537 1543.0
19.6205 1611.0
19.6874 1581.0
19.7542 1722.0
19.8211 1881.0
19.8879 1945.0
19.9548 1953.0
20.0216 1960.0
20.0884 2050.0
20.1553 2101.0
20.2221 1995.0
20.289 1880.0
20.3558 1803.0
20.4227 1684.0
20.4895 1663.0
20.5564 1501.0
20.6232 1451.0
20.69 1283.0
20.7569 1222.0
20.8237 1185.0
20.8906 1129.0
20.9574 1096.0
21.0243 1074.0
21.0911 1042.0
21.158 1044.0
21.2248 1040.0
21.2917 1070.0
21.3585 1119.0
21.4253 1178.0
21.4922 1260.0
21.559 1352.0
21.6259 1465.0
21.6927 1446.0
21.7596 1475.0
21.8264 1586.0
21.8933 1774.0
21.9601 2089.0
22.0269 2208.0
22.0938 2476.0
22.1606 2517.0
22.2275 2675.0
22.2943 2691.0
22.3612 2740.0
22.428 2663.0
22.4949 2736.0
22.5617 2636.0
22.6286 2596.0
22.6954 2478.0
22.7622 2321.0
22.8291 2291.0
22.8959 2223.0
22.9628 2112.0
23.0296 2121.0
23.0965 2024.0
23.1633 1903.0
23.2302 1875.0
23.297 1804.0
23.3639 1832.0
23.4307 1820.0
23.4975 1693.0
23.5644 1607.0
23.6312 1619.0
23.6981 1513.0
23.7649 1447.0
23.8318 1466.0
23.8986 1427.0
23.9655 1325.0
24.0323 1346.0
24.0991 1245.0
24.166 1157.0
24.2328 1193.0
24.2997 1118.0
24.3665 1084.0
24.4334 1093.0
24.5002 1117.0
24.5671 1115.0
24.6339 1112.0
24.7008 1122.0
24.7676 1263.0
24.8344 1373.0
24.9013 1699.0
24.9681 1869.0
25.035 2069.0
25.1018 1955.0
25.1687 1851.0
25.2355 1642.0
25.3024 1446.0
25.3692 1333.0
25.436 1253.0
25.5029 1343.0
25.5697 1377.0
25.6366 1499.0
25.7034 1753.0
25.7703 2188.0
25.8371 2808.0
25.904 3413.0
25.9708 4096.0
26.0377 4313.0
26.1045 3964.0
26.1713 3308.0
26.2382 2675.0
26.305 2419.0
26.3719 2223.0
26.4387 2304.0
26.5056 2324.0
26.5724 2409.0
26.6393 2397.0
26.7061 2341.0
26.773 2288.0
26.8398 2196.0
26.9066 2039.0
26.9735 1923.0
27.0403 1763.0
27.1072 1683.0
27.174 1522.0
27.2409 1419.0
27.3077 1330.0
27.3746 1276.0
27.4414 1293.0
27.5082 1227.0
27.5751 1194.0
27.6419 1204.0
27.7088 1070.0
27.7756 1070.0
27.8425 1034.0
27.9093 1097.0
27.9762 1073.0
28.043 1005.0
28.1099 987.0
28.1767 1018.0
28.2435 1016.0
28.3104 1005.0
28.3772 902.0
28.4441 873.0
28.5109 909.0
28.5778 866.0
28.6446 928.0
28.7115 876.0
28.7783 892.0
28.8451 985.0
28.912 863.0
28.9788 929.0
29.0457 915.0
29.1125 928.0
29.1794 946.0
29.2462 899.0
29.3131 909.0
29.3799 838.0
29.4468 845.0
29.5136 744.0
29.5804 816.0
29.6473 737.0
29.7141 741.0
29.781 660.0
29.8478 681.0
29.9147 692.0
29.9815 631.0
30.0484 665.0
30.1152 710.0
30.182 700.0
30.2489 663.0
30.3157 650.0
30.3826 595.0
30.4494 625.0
30.5163 631.0
30.5831 564.0
30.65 590.0
30.7168 539.0
30.7837 559.0
30.8505 571.0
30.9173 476.0
30.9842 457.0
31.051 467.0
31.1179 490.0
31.1847 504.0
31.2516 510.0
31.3184 605.0
31.3853 631.0
31.4521 637.0
31.519 739.0
31.5858 764.0
31.6526 751.0
31.7195 748.0
31.7863 697.0
31.8532 670.0
31.92 607.0
31.9869 604.0
32.0537 563.0
32.1206 584.0
32.1874 583.0
32.2542 582.0
32.3211 620.0
32.3879 627.0
32.4548 623.0
32.5216 635.0
32.5885 675.0
32.6553 658.0
32.7222 699.0
32.789 741.0
32.8559 707.0
32.9227 732.0
32.9895 739.0
33.0564 766.0
33.1232 820.0
33.1901 794.0
33.2569 834.0
33.3238 826.0
33.3906 839.0
33.4575 879.0
33.5243 868.0
33.5911 836.0
33.658 850.0
33.7248 831.0
33.7917 766.0
33.8585 801.0
33.9254 739.0
33.9922 680.0
34.0591 724.0
34.1259 660.0
34.1928 659.0
34.2596 642.0
34.3264 622.0
34.3933 641.0
34.4601 627.0
34.527 619.0
34.5938 581.0
34.6607 643.0
34.7275 592.0
34.7944 638.0
34.8612 573.0
34.928 573.0
34.9949 524.0
35.0617 531.0
35.1286 540.0
35.1954 513.0
35.2623 472.0
35.3291 494.0
35.396 480.0
35.4628 473.0
35.5297 442.0
35.5965 389.0
35.6633 479.0
35.7302 420.0
35.797 419.0
35.8639 440.0
35.9307 443.0
35.9976 443.0
36.0644 495.0
36.1313 516.0
36.1981 481.0
36.265 547.0
36.3318 582.0
36.3986 576.0
36.4655 589.0
36.5323 554.0
36.5992 528.0
36.666 477.0
36.7329 460.0
36.7997 456.0
36.8666 462.0
36.9334 491.0
37.0002 541.0
37.0671 458.0
37.1339 553.0
37.2008 514.0
37.2676 537.0
37.3345 505.0
37.4013 527.0
37.4682 566.0
37.535 556.0
37.6019 543.0
37.6687 595.0
37.7355 639.0
37.8024 647.0
37.8692 672.0
37.9361 651.0
38.0029 582.0
38.0698 544.0
38.1366 502.0
38.2035 471.0
38.2703 447.0
38.3371 411.0
38.404 393.0
38.4708 378.0
38.5377 429.0
38.6045 384.0
38.6714 362.0
38.7382 428.0
38.8051 352.0
38.8719 397.0
38.9388 382.0
39.0056 391.0
39.0724 427.0
39.1393 417.0
39.2061 429.0
39.273 399.0
39.3398 388.0
39.4067 378.0
39.4735 388.0
39.5404 357.0
39.6072 392.0
39.6741 406.0
39.7409 393.0
39.8077 406.0
39.8746 431.0
39.9414 428.0
40.0083 407.0
40.0751 398.0
40.142 375.0
40.2088 396.0
40.2757 402.0
40.3425 385.0
40.4093 408.0
40.4762 435.0
40.543 429.0
40.6099 419.0
40.6767 415.0
40.7436 434.0
40.8104 449.0
40.8773 504.0
40.9441 430.0
41.011 395.0
41.0778 401.0
41.1446 413.0
41.2115 436.0
41.2783 387.0
41.3452 362.0
41.412 391.0
41.4789 372.0
41.5457 431.0
41.6126 388.0
41.6794 362.0
41.7462 387.0
41.8131 403.0
41.8799 379.0
41.9468 370.0
42.0136 407.0
42.0805 373.0
42.1473 351.0
42.2142 371.0
42.281 384.0
42.3479 386.0
42.4147 415.0
42.4815 391.0
42.5484 418.0
42.6152 381.0
42.6821 396.0
42.7489 403.0
42.8158 408.0
42.8826 431.0
42.9495 408.0
43.0163 442.0
43.0831 462.0
43.15 458.0
43.2168 404.0
43.2837 399.0
43.3505 397.0
43.4174 435.0
43.4842 404.0
43.5511 410.0
43.6179 381.0
43.6848 462.0
43.7516 397.0
43.8184 434.0
43.8853 397.0
43.9521 443.0
44.019 449.0
44.0858 448.0
44.1527 430.0
44.2195 435.0
44.2864 435.0
44.3532 444.0
44.4201 449.0
44.4869 463.0
44.5537 475.0
44.6206 574.0
44.6874 505.0
44.7543 500.0
44.8211 523.0
44.888 453.0
44.9548 528.0
45.0217 483.0
45.0885 474.0
45.1553 474.0
45.2222 470.0
45.289 399.0
45.3559 511.0
45.4227 427.0
45.4896 429.0
45.5564 434.0
45.6233 460.0
45.6901 518.0
45.757 516.0
45.8238 526.0
45.8906 566.0
45.9575 561.0
46.0243 587.0
46.0912 649.0
46.158 658.0
46.2249 654.0
46.2917 633.0
46.3586 557.0
46.4254 590.0
46.4922 547.0
46.5591 536.0
46.6259 510.0
46.6928 490.0
46.7596 463.0
46.8265 418.0
46.8933 438.0
46.9602 413.0
47.027 415.0
47.0939 398.0
47.1607 399.0
47.2275 357.0
47.2944 377.0
47.3612 377.0
47.4281 355.0
47.4949 372.0
47.5618 376.0
47.6286 401.0
47.6955 398.0
47.7623 402.0
47.8291 432.0
47.896 445.0
47.9628 463.0
48.0297 474.0
48.0965 527.0
48.1634 493.0
48.2302 547.0
48.2971 568.0
48.3639 545.0
48.4308 588.0
48.4976 560.0
48.5644 548.0
48.6313 613.0
48.6981 573.0
48.765 521.0
48.8318 589.0
48.8987 528.0
48.9655 552.0
49.0324 532.0
49.0992 532.0
49.1661 471.0
49.2329 458.0
49.2997 469.0
49.3666 455.0
49.4334 482.0
49.5003 414.0
49.5671 424.0
49.634 429.0
49.7008 418.0
49.7677 409.0
49.8345 375.0
49.9013 385.0
49.9682 435.0
50.035 381.0
50.1019 406.0
50.1687 403.0
50.2356 382.0
50.3024 384.0
50.3693 410.0
50.4361 385.0
50.503 408.0
50.5698 356.0
50.6366 441.0
50.7035 425.0
50.7703 443.0
50.8372 409.0
50.904 446.0
50.9709 473.0
51.0377 448.0
51.1046 474.0
51.1714 463.0
51.2382 485.0
51.3051 491.0
51.3719 482.0
51.4388 516.0
51.5056 536.0
51.5725 558.0
51.6393 558.0
51.7062 545.0
51.773 554.0
51.8399 545.0
51.9067 586.0
51.9735 570.0
52.0404 570.0
52.1072 554.0
52.1741 565.0
52.2409 503.0
52.3078 469.0
52.3746 454.0
52.4415 451.0
52.5083 506.0
52.5751 425.0
52.642 456.0
52.7088 438.0
52.7757 429.0
52.8425 432.0
52.9094 377.0
52.9762 352.0
53.0431 448.0
53.1099 402.0
53.1768 396.0
53.2436 415.0
53.3104 431.0
53.3773 403.0
53.4441 388.0
53.511 416.0
53.5778 361.0
53.6447 422.0
53.7115 448.0
53.7784 362.0
53.8452 370.0
53.9121 330.0
53.9789 372.0
54.0457 383.0
54.1126 341.0
54.1794 351.0
54.2463 351.0
54.3131 313.0
54.38 320.0
54.4468 339.0
54.5137 329.0
54.5805 317.0
54.6473 315.0
54.7142 325.0
54.781 314.0
54.8479 321.0
54.9147 292.0
54.9816 291.0
55.0484 323.0
55.1153 279.0
55.1821 290.0
55.249 294.0
55.3158 297.0
55.3826 275.0
55.4495 282.0
55.5163 279.0
55.5832 324.0
55.65 330.0
55.7169 341.0
55.7837 315.0
55.8506 334.0
55.9174 354.0
55.9842 371.0
56.0511 380.0
56.1179 389.0
56.1848 399.0
56.2516 367.0
56.3185 379.0
56.3853 380.0
56.4522 336.0
56.519 407.0
56.5859 345.0
56.6527 344.0
56.7195 319.0
56.7864 355.0
56.8532 347.0
56.9201 366.0
56.9869 331.0
57.0538 364.0
57.1206 346.0
57.1875 326.0
57.2543 363.0
57.3212 337.0
57.388 376.0
57.4548 362.0
57.5217 342.0
57.5885 347.0
57.6554 332.0
57.7222 328.0
57.7891 355.0
57.8559 310.0
57.9228 330.0
57.9896 321.0
58.0564 360.0
58.1233 356.0
58.1901 366.0
58.257 322.0
58.3238 340.0
58.3907 320.0
58.4575 324.0
58.5244 346.0
58.5912 330.0
58.6581 336.0
58.7249 356.0
58.7917 308.0
58.8586 340.0
58.9254 325.0
58.9923 371.0
59.0591 331.0
59.126 364.0
59.1928 371.0
59.2597 352.0
59.3265 378.0
59.3933 353.0
59.4602 348.0
59.527 400.0
59.5939 350.0
59.6607 399.0
59.7276 417.0
59.7944 403.0
59.8613 375.0
59.9281 409.0
59.995 331.0
60.0618 378.0
60.1286 373.0
60.1955 404.0
60.2623 378.0
60.3292 375.0
60.396 346.0
60.4629 369.0
60.5297 310.0
60.5966 341.0
60.6634 357.0
60.7302 376.0
60.7971 372.0
60.8639 373.0
60.9308 340.0
60.9976 400.0
61.0645 420.0
61.1313 365.0
61.1982 415.0
61.265 365.0
61.3319 396.0
61.3987 406.0
61.4655 398.0
61.5324 379.0
61.5992 363.0
61.6661 362.0
61.7329 429.0
61.7998 386.0
61.8666 369.0
61.9335 385.0
62.0003 380.0
62.0672 357.0
62.134 337.0
62.2008 377.0
62.2677 361.0
62.3345 372.0
62.4014 375.0
62.4682 333.0
62.5351 342.0
62.6019 379.0
62.6688 337.0
62.7356 341.0
62.8024 383.0
62.8693 363.0
62.9361 357.0
63.003 345.0
63.0698 375.0
63.1367 389.0
63.2035 364.0
63.2704 356.0
63.3372 364.0
63.4041 383.0
63.4709 383.0
63.5377 380.0
63.6046 382.0
63.6714 357.0
63.7383 388.0
63.8051 375.0
63.872 375.0
63.9388 356.0
64.0057 345.0
64.0725 413.0
64.1393 396.0
64.2062 394.0
64.273 398.0
64.3399 411.0
64.4067 416.0
64.4736 470.0
64.5404 462.0
64.6073 444.0
64.6741 489.0
64.741 441.0
64.8078 490.0
64.8746 487.0
64.9415 519.0
65.0083 519.0
65.0752 533.0
65.142 569.0
65.2089 603.0
65.2757 607.0
65.3426 622.0
65.4094 585.0
65.4762 588.0
65.5431 614.0
65.6099 553.0
65.6768 547.0
65.7436 524.0
65.8105 496.0
65.8773 541.0
65.9442 539.0
66.011 502.0
66.0779 500.0
66.1447 500.0
66.2115 467.0
66.2784 520.0
66.3452 472.0
66.4121 419.0
66.4789 448.0
66.5458 429.0
66.6126 403.0
66.6795 436.0
66.7463 426.0
66.8132 382.0
66.88 380.0
66.9468 413.0
67.0137 325.0
67.0805 380.0
67.1474 364.0
67.2142 371.0
67.2811 415.0
67.3479 346.0
67.4148 363.0
67.4816 371.0
67.5484 396.0
67.6153 345.0
67.6821 360.0
67.749 294.0
67.8158 326.0
67.8827 339.0
67.9495 345.0
68.0164 353.0
68.0832 363.0
68.1501 302.0
68.2169 311.0
68.2837 321.0
68.3506 332.0
68.4174 287.0
68.4843 310.0
68.5511 310.0
68.618 288.0
68.6848 314.0
68.7517 325.0
68.8185 294.0
68.8853 311.0
68.9522 308.0
69.019 347.0
69.0859 330.0
69.1527 341.0
69.2196 303.0
69.2864 292.0
69.3533 339.0
69.4201 309.0
69.487 313.0
69.5538 317.0
69.6206 307.0
69.6875 298.0
69.7543 340.0
69.8212 344.0
69.888 351.0
69.9549 370.0
70.0217 302.0
70.0886 356.0
70.1554 357.0
70.2222 368.0
70.2891 360.0
70.3559 341.0
70.4228 377.0
70.4896 347.0
70.5565 302.0
70.6233 304.0
70.6902 334.0
70.757 347.0
70.8239 377.0
70.8907 315.0
70.9575 344.0
71.0244 340.0
71.0912 273.0
71.1581 325.0
71.2249 305.0
71.2918 347.0
71.3586 300.0
71.4255 332.0
71.4923 330.0
71.5592 289.0
71.626 293.0
71.6928 276.0
71.7597 298.0
71.8265 293.0
71.8934 292.0
71.9602 300.0
72.0271 287.0
72.0939 338.0
72.1608 269.0
72.2276 326.0
72.2944 338.0
72.3613 308.0
72.4281 303.0
72.495 323.0
72.5618 358.0
72.6287 319.0
72.6955 369.0
72.7624 350.0
72.8292 350.0
72.8961 408.0
72.9629 339.0
73.0297 381.0
73.0966 341.0
73.1634 376.0
73.2303 333.0
73.2971 398.0
73.364 392.0
73.4308 368.0
73.4977 330.0
73.5645 377.0
73.6313 368.0
73.6982 358.0
73.765 369.0
73.8319 344.0
73.8987 342.0
73.9656 325.0
74.0324 322.0
74.0993 319.0
74.1661 340.0
74.233 321.0
74.2998 319.0
74.3666 290.0
74.4335 317.0
74.5003 322.0
74.5672 331.0
74.634 341.0
74.7009 311.0
74.7677 332.0
74.8346 292.0
74.9014 298.0
74.9683 302.0
75.0351 292.0
75.1019 331.0
75.1688 302.0
75.2356 279.0
75.3025 324.0
75.3693 284.0
75.4362 293.0
75.503 268.0
75.5699 324.0
75.6367 325.0
75.7035 297.0
75.7704 273.0
75.8372 291.0
75.9041 340.0
75.9709 342.0
76.0378 341.0
76.1046 322.0
76.1715 348.0
76.2383 337.0
76.3052 328.0
76.372 295.0
76.4388 314.0
76.5057 340.0
76.5725 351.0
76.6394 321.0
76.7062 304.0
76.7731 308.0
76.8399 323.0
76.9068 338.0
76.9736 352.0
77.0404 330.0
77.1073 320.0
77.1741 348.0
77.241 321.0
77.3078 345.0
77.3747 363.0
77.4415 336.0
77.5084 341.0
77.5752 325.0
77.6421 329.0
77.7089 319.0
77.7757 345.0
77.8426 349.0
77.9094 331.0
77.9763 340.0
78.0431 334.0
78.11 339.0
78.1768 385.0
78.2437 369.0
78.3105 363.0
78.3773 393.0
78.4442 366.0
78.511 369.0
78.5779 355.0
78.6447 389.0
78.7116 342.0
78.7784 356.0
78.8453 347.0
78.9121 355.0
78.979 353.0
79.0458 369.0
79.1126 370.0
79.1795 339.0
79.2463 333.0
79.3132 355.0
79.38 315.0
79.4469 308.0
79.5137 301.0
79.5806 301.0
79.6474 318.0
79.7143 328.0
79.7811 302.0
79.8479 322.0
79.9148 292.0
79.9816 288.0
80.0485 276.0
80.1153 336.0
80.1822 278.0
80.249 290.0
80.3159 294.0
80.3827 245.0
80.4495 304.0
80.5164 309.0
80.5832 279.0
80.6501 315.0
80.7169 274.0
80.7838 258.0
80.8506 300.0
80.9175 286.0
80.9843 293.0
81.0512 290.0
81.118 286.0
81.1848 287.0
81.2517 261.0
81.3185 270.0
81.3854 240.0
81.4522 260.0
81.5191 260.0
81.5859 271.0
81.6528 254.0
81.7196 266.0
81.7864 250.0
81.8533 263.0
81.9201 233.0
81.987 267.0
82.0538 237.0
82.1207 291.0
82.1875 277.0
82.2544 264.0
82.3212 246.0
82.3881 267.0
82.4549 247.0
82.5217 282.0
82.5886 259.0
82.6554 239.0
82.7223 267.0
82.7891 251.0
82.856 260.0
82.9228 246.0
82.9897 268.0
83.0565 212.0
83.1233 240.0
83.1902 241.0
83.257 230.0
83.3239 255.0
83.3907 216.0
83.4576 253.0
83.5244 230.0
83.5913 243.0
83.6581 223.0
83.725 212.0
83.7918 226.0
83.8586 236.0
83.9255 235.0
83.9923 233.0
84.0592 222.0
84.126 207.0
84.1929 236.0
84.2597 240.0
84.3266 228.0
84.3934 214.0
84.4603 219.0
84.5271 243.0
84.5939 219.0
84.6608 200.0
84.7276 235.0
84.7945 221.0
84.8613 239.0
84.9282 213.0
84.995 200.0
85.0619 223.0
85.1287 225.0
85.1955 221.0
85.2624 230.0
85.3292 217.0
85.3961 189.0
85.4629 231.0
85.5298 226.0
85.5966 233.0
85.6635 185.0
85.7303 223.0
85.7972 190.0
85.864 233.0
85.9308 196.0
85.9977 194.0
86.0645 210.0
86.1314 226.0
86.1982 194.0
86.2651 197.0
86.3319 223.0
86.3988 222.0
86.4656 197.0
86.5324 190.0
86.5993 231.0
86.6661 192.0
86.733 196.0
86.7998 197.0
86.8667 200.0
86.9335 181.0
87.0004 196.0
87.0672 177.0
87.1341 198.0
87.2009 204.0
87.2677 190.0
87.3346 213.0
87.4014 223.0
87.4683 233.0
87.5351 188.0
87.602 189.0
87.6688 198.0
87.7357 188.0
87.8025 192.0
87.8693 205.0
87.9362 172.0
88.003 206.0
88.0699 177.0
88.1367 182.0
88.2036 178.0
88.2704 227.0
88.3373 182.0
88.4041 177.0
88.471 179.0
88.5378 228.0
88.6046 191.0
88.6715 203.0
88.7383 196.0
88.8052 200.0
88.872 201.0
88.9389 200.0
89.0057 212.0
89.0726 179.0
89.1394 190.0
89.2063 189.0
89.2731 194.0
89.3399 212.0
89.4068 194.0
89.4736 211.0
89.5405 206.0
89.6073 205.0
89.6742 200.0
89.741 223.0
89.8079 219.0
89.8747 206.0
89.9415 239.0