File: code/XRD_Analysis/External Sources/Fabian/20240409_RhCo3_MCM-41_used.xy
4.98146 7443.0
5.0483 6952.0
5.11515 6572.0
5.18199 6035.0
5.24884 5690.0
5.31568 5474.0
5.38253 5035.0
5.44937 4838.0
5.51622 4674.0
5.58306 4454.0
5.64991 4522.0
5.71675 4355.0
5.7836 4219.0
5.85044 4211.0
5.91729 4060.0
5.98413 4134.0
6.05098 4045.0
6.11782 3986.0
6.18467 3992.0
6.25151 3941.0
6.31836 3916.0
6.3852 3828.0
6.45205 3838.0
6.51889 3724.0
6.58574 3757.0
6.65258 3670.0
6.71943 3573.0
6.78627 3534.0
6.85312 3527.0
6.91996 3477.0
6.98681 3394.0
7.05365 3332.0
7.1205 3371.0
7.18734 3371.0
7.25419 3297.0
7.32103 3347.0
7.38788 3244.0
7.45472 3221.0
7.52157 3234.0
7.58841 3267.0
7.65526 3045.0
7.7221 3109.0
7.78895 3137.0
7.85579 3107.0
7.92264 3094.0
7.98948 3079.0
8.05633 3029.0
8.12317 3001.0
8.19002 2945.0
8.25686 2994.0
8.32371 2932.0
8.39055 2943.0
8.4574 2944.0
8.52424 2959.0
8.59109 2856.0
8.65793 2864.0
8.72478 2839.0
8.79162 2906.0
8.85847 2939.0
8.92532 2848.0
8.99216 2784.0
9.05901 2865.0
9.12585 2828.0
9.1927 2778.0
9.25954 2759.0
9.32639 2651.0
9.39323 2768.0
9.46008 2752.0
9.52692 2755.0
9.59377 2677.0
9.66061 2602.0
9.72746 2693.0
9.7943 2637.0
9.86115 2752.0
9.92799 2653.0
9.99484 2699.0
10.0617 2682.0
10.1285 2731.0
10.1954 2625.0
10.2622 2792.0
10.3291 2734.0
10.3959 2631.0
10.4628 2684.0
10.5296 2776.0
10.5964 2730.0
10.6633 2666.0
10.7301 2660.0
10.797 2623.0
10.8638 2636.0
10.9307 2677.0
10.9975 2631.0
11.0644 2671.0
11.1312 2667.0
11.198 2581.0
11.2649 2585.0
11.3317 2684.0
11.3986 2645.0
11.4654 2635.0
11.5323 2668.0
11.5991 2744.0
11.666 2692.0
11.7328 2634.0
11.7997 2781.0
11.8665 2785.0
11.9333 2698.0
12.0002 2515.0
12.067 2659.0
12.1339 2717.0
12.2007 2653.0
12.2676 2678.0
12.3344 2710.0
12.4013 2694.0
12.4681 2687.0
12.5349 2536.0
12.6018 2685.0
12.6686 2585.0
12.7355 2661.0
12.8023 2677.0
12.8692 2650.0
12.936 2786.0
13.0029 2713.0
13.0697 2679.0
13.1366 2629.0
13.2034 2729.0
13.2702 2742.0
13.3371 2660.0
13.4039 2731.0
13.4708 2806.0
13.5376 2716.0
13.6045 2735.0
13.6713 2680.0
13.7382 2770.0
13.805 2741.0
13.8719 2646.0
13.9387 2741.0
14.0055 2847.0
14.0724 2772.0
14.1392 2816.0
14.2061 2776.0
14.2729 2760.0
14.3398 2851.0
14.4066 2730.0
14.4735 2780.0
14.5403 2978.0
14.6071 2797.0
14.674 2935.0
14.7408 2866.0
14.8077 2891.0
14.8745 2946.0
14.9414 2870.0
15.0082 2884.0
15.0751 2949.0
15.1419 2918.0
15.2088 2983.0
15.2756 2896.0
15.3424 2949.0
15.4093 3029.0
15.4761 3081.0
15.543 3241.0
15.6098 3205.0
15.6767 3051.0
15.7435 3151.0
15.8104 3016.0
15.8772 3177.0
15.944 3236.0
16.0109 3135.0
16.0777 3166.0
16.1446 3200.0
16.2114 3143.0
16.2783 3230.0
16.3451 3189.0
16.412 3309.0
16.4788 3313.0
16.5457 3328.0
16.6125 3329.0
16.6793 3373.0
16.7462 3490.0
16.813 3385.0
16.8799 3420.0
16.9467 3424.0
17.0136 3360.0
17.0804 3500.0
17.1473 3621.0
17.2141 3607.0
17.2809 3593.0
17.3478 3464.0
17.4146 3671.0
17.4815 3756.0
17.5483 3654.0
17.6152 3745.0
17.682 3596.0
17.7489 3744.0
17.8157 3824.0
17.8826 3839.0
17.9494 3986.0
18.0162 3872.0
18.0831 3913.0
18.1499 3916.0
18.2168 3965.0
18.2836 4088.0
18.3505 4103.0
18.4173 4141.0
18.4842 4127.0
18.551 4152.0
18.6179 4112.0
18.6847 4259.0
18.7515 4370.0
18.8184 4397.0
18.8852 4448.0
18.9521 4483.0
19.0189 4329.0
19.0858 4365.0
19.1526 4470.0
19.2195 4627.0
19.2863 4559.0
19.3531 4612.0
19.42 4567.0
19.4868 4674.0
19.5537 4660.0
19.6205 4771.0
19.6874 4848.0
19.7542 4880.0
19.8211 4905.0
19.8879 4916.0
19.9548 4940.0
20.0216 4821.0
20.0884 5044.0
20.1553 5021.0
20.2221 5035.0
20.289 5070.0
20.3558 5008.0
20.4227 5194.0
20.4895 5212.0
20.5564 5223.0
20.6232 5342.0
20.69 5322.0
20.7569 5480.0
20.8237 5338.0
20.8906 5332.0
20.9574 5417.0
21.0243 5487.0
21.0911 5333.0
21.158 5554.0
21.2248 5655.0
21.2917 5487.0
21.3585 5429.0
21.4253 5614.0
21.4922 5767.0
21.559 5689.0
21.6259 5650.0
21.6927 5756.0
21.7596 5748.0
21.8264 5605.0
21.8933 5820.0
21.9601 5673.0
22.0269 5683.0
22.0938 5822.0
22.1606 5704.0
22.2275 5826.0
22.2943 5767.0
22.3612 5767.0
22.428 5840.0
22.4949 5682.0
22.5617 5912.0
22.6286 5908.0
22.6954 5825.0
22.7622 5901.0
22.8291 5814.0
22.8959 5747.0
22.9628 5814.0
23.0296 5799.0
23.0965 6053.0
23.1633 5745.0
23.2302 5842.0
23.297 5832.0
23.3639 5905.0
23.4307 5863.0
23.4975 5852.0
23.5644 5725.0
23.6312 5805.0
23.6981 5795.0
23.7649 5774.0
23.8318 5879.0
23.8986 5659.0
23.9655 5768.0
24.0323 5785.0
24.0991 5669.0
24.166 5810.0
24.2328 5661.0
24.2997 5678.0
24.3665 5544.0
24.4334 5807.0
24.5002 5792.0
24.5671 5695.0
24.6339 5636.0
24.7008 5570.0
24.7676 5712.0
24.8344 5536.0
24.9013 5624.0
24.9681 5665.0
25.035 5474.0
25.1018 5431.0
25.1687 5426.0
25.2355 5413.0
25.3024 5442.0
25.3692 5455.0
25.436 5316.0
25.5029 5368.0
25.5697 5284.0
25.6366 5301.0
25.7034 5188.0
25.7703 5226.0
25.8371 5137.0
25.904 5146.0
25.9708 5230.0
26.0377 5188.0
26.1045 5127.0
26.1713 5123.0
26.2382 5087.0
26.305 5073.0
26.3719 5114.0
26.4387 4913.0
26.5056 5060.0
26.5724 4998.0
26.6393 5071.0
26.7061 5033.0
26.773 4855.0
26.8398 4818.0
26.9066 4823.0
26.9735 4970.0
27.0403 4760.0
27.1072 4770.0
27.174 4835.0
27.2409 4845.0
27.3077 4657.0
27.3746 4765.0
27.4414 4745.0
27.5082 4662.0
27.5751 4680.0
27.6419 4700.0
27.7088 4714.0
27.7756 4530.0
27.8425 4595.0
27.9093 4575.0
27.9762 4587.0
28.043 4566.0
28.1099 4566.0
28.1767 4565.0
28.2435 4581.0
28.3104 4536.0
28.3772 4440.0
28.4441 4578.0
28.5109 4502.0
28.5778 4380.0
28.6446 4489.0
28.7115 4492.0
28.7783 4339.0
28.8451 4236.0
28.912 4201.0
28.9788 4422.0
29.0457 4316.0
29.1125 4283.0
29.1794 4165.0
29.2462 4235.0
29.3131 4139.0
29.3799 4178.0
29.4468 4194.0
29.5136 4121.0
29.5804 4273.0
29.6473 4181.0
29.7141 4109.0
29.781 4094.0
29.8478 4135.0
29.9147 3982.0
29.9815 4213.0
30.0484 4014.0
30.1152 4048.0
30.182 3926.0
30.2489 4090.0
30.3157 4038.0
30.3826 3945.0
30.4494 3896.0
30.5163 3965.0
30.5831 3901.0
30.65 3951.0
30.7168 4060.0
30.7837 3894.0
30.8505 3903.0
30.9173 3939.0
30.9842 3907.0
31.051 3883.0
31.1179 3913.0
31.1847 3924.0
31.2516 3860.0
31.3184 3893.0
31.3853 3828.0
31.4521 3867.0
31.519 3784.0
31.5858 3887.0
31.6526 3834.0
31.7195 3811.0
31.7863 3697.0
31.8532 3694.0
31.92 3735.0
31.9869 3696.0
32.0537 3748.0
32.1206 3760.0
32.1874 3762.0
32.2542 3795.0
32.3211 3657.0
32.3879 3663.0
32.4548 3695.0
32.5216 3735.0
32.5885 3723.0
32.6553 3555.0
32.7222 3692.0
32.789 3575.0
32.8559 3711.0
32.9227 3632.0
32.9895 3679.0
33.0564 3461.0
33.1232 3648.0
33.1901 3565.0
33.2569 3538.0
33.3238 3538.0
33.3906 3627.0
33.4575 3704.0
33.5243 3503.0
33.5911 3622.0
33.658 3457.0
33.7248 3575.0
33.7917 3567.0
33.8585 3545.0
33.9254 3570.0
33.9922 3457.0
34.0591 3592.0
34.1259 3606.0
34.1928 3490.0
34.2596 3485.0
34.3264 3501.0
34.3933 3539.0
34.4601 3462.0
34.527 3513.0
34.5938 3398.0
34.6607 3562.0
34.7275 3532.0
34.7944 3493.0
34.8612 3484.0
34.928 3410.0
34.9949 3419.0
35.0617 3458.0
35.1286 3487.0
35.1954 3435.0
35.2623 3378.0
35.3291 3486.0
35.396 3447.0
35.4628 3356.0
35.5297 3383.0
35.5965 3427.0
35.6633 3336.0
35.7302 3428.0
35.797 3451.0
35.8639 3345.0
35.9307 3368.0
35.9976 3302.0
36.0644 3387.0
36.1313 3403.0
36.1981 3444.0
36.265 3363.0
36.3318 3336.0
36.3986 3348.0
36.4655 3220.0
36.5323 3307.0
36.5992 3323.0
36.666 3250.0
36.7329 3383.0
36.7997 3331.0
36.8666 3229.0
36.9334 3340.0
37.0002 3217.0
37.0671 3331.0
37.1339 3236.0
37.2008 3309.0
37.2676 3305.0
37.3345 3274.0
37.4013 3156.0
37.4682 3278.0
37.535 3220.0
37.6019 3209.0
37.6687 3220.0
37.7355 3215.0
37.8024 3248.0
37.8692 3219.0
37.9361 3248.0
38.0029 3134.0
38.0698 3225.0
38.1366 3188.0
38.2035 3185.0
38.2703 3157.0
38.3371 3200.0
38.404 3189.0
38.4708 3134.0
38.5377 3107.0
38.6045 3214.0
38.6714 3164.0
38.7382 3096.0
38.8051 3102.0
38.8719 3110.0
38.9388 3104.0
39.0056 2979.0
39.0724 3103.0
39.1393 3131.0
39.2061 3103.0
39.273 3111.0
39.3398 3115.0
39.4067 3084.0
39.4735 3179.0
39.5404 3105.0
39.6072 3111.0
39.6741 3108.0
39.7409 3120.0
39.8077 3143.0
39.8746 3140.0
39.9414 3158.0
40.0083 3077.0
40.0751 3154.0
40.142 3214.0
40.2088 3201.0
40.2757 3110.0
40.3425 3105.0
40.4093 3092.0
40.4762 3281.0
40.543 3134.0
40.6099 3253.0
40.6767 3078.0
40.7436 3140.0
40.8104 3189.0
40.8773 3117.0
40.9441 3109.0
41.011 3127.0
41.0778 3105.0
41.1446 3087.0
41.2115 3095.0
41.2783 3240.0
41.3452 3164.0
41.412 3313.0
41.4789 3135.0
41.5457 3090.0
41.6126 3256.0
41.6794 3165.0
41.7462 3273.0
41.8131 3144.0
41.8799 3067.0
41.9468 3177.0
42.0136 3271.0
42.0805 3136.0
42.1473 3142.0
42.2142 3221.0
42.281 3127.0
42.3479 3200.0
42.4147 3286.0
42.4815 3262.0
42.5484 3198.0
42.6152 3282.0
42.6821 3199.0
42.7489 3324.0
42.8158 3307.0
42.8826 3108.0
42.9495 3100.0
43.0163 3193.0
43.0831 3140.0
43.15 3193.0
43.2168 3151.0
43.2837 3156.0
43.3505 3188.0
43.4174 3170.0
43.4842 3247.0
43.5511 3155.0
43.6179 3141.0
43.6848 3088.0
43.7516 3154.0
43.8184 3146.0
43.8853 3205.0
43.9521 3150.0
44.019 3159.0
44.0858 3123.0
44.1527 3191.0
44.2195 3158.0
44.2864 3014.0
44.3532 3165.0
44.4201 3054.0
44.4869 3066.0
44.5537 3085.0
44.6206 3164.0
44.6874 3107.0
44.7543 3199.0
44.8211 3142.0
44.888 3091.0
44.9548 3095.0
45.0217 3134.0
45.0885 3183.0
45.1553 3139.0
45.2222 3133.0
45.289 3144.0
45.3559 3171.0
45.4227 3051.0
45.4896 3163.0
45.5564 3170.0
45.6233 3052.0
45.6901 3063.0
45.757 3159.0
45.8238 3025.0
45.8906 3017.0
45.9575 3021.0
46.0243 3130.0
46.0912 3149.0
46.158 2983.0
46.2249 3054.0
46.2917 3118.0
46.3586 3024.0
46.4254 2990.0
46.4922 3138.0
46.5591 3103.0
46.6259 3126.0
46.6928 3028.0
46.7596 3087.0
46.8265 3047.0
46.8933 3100.0
46.9602 3014.0
47.027 3193.0
47.0939 3173.0
47.1607 3104.0
47.2275 3096.0
47.2944 3126.0
47.3612 3030.0
47.4281 2947.0
47.4949 3003.0
47.5618 3096.0
47.6286 3060.0
47.6955 3095.0
47.7623 3029.0
47.8291 3045.0
47.896 3083.0
47.9628 3120.0
48.0297 2994.0
48.0965 3063.0
48.1634 2997.0
48.2302 2996.0
48.2971 3077.0
48.3639 2959.0
48.4308 3032.0
48.4976 3032.0
48.5644 3083.0
48.6313 3020.0
48.6981 2935.0
48.765 3067.0
48.8318 2938.0
48.8987 3040.0
48.9655 3004.0
49.0324 3091.0
49.0992 2995.0
49.1661 2853.0
49.2329 2985.0
49.2997 2935.0
49.3666 2916.0
49.4334 2928.0
49.5003 3001.0
49.5671 2984.0
49.634 3008.0
49.7008 2973.0
49.7677 2964.0
49.8345 2975.0
49.9013 2981.0
49.9682 2968.0
50.035 2977.0
50.1019 2974.0
50.1687 3043.0
50.2356 2930.0
50.3024 2983.0
50.3693 3045.0
50.4361 2931.0
50.503 2979.0
50.5698 3004.0
50.6366 2898.0
50.7035 2978.0
50.7703 2952.0
50.8372 2984.0
50.904 2874.0
50.9709 2973.0
51.0377 2956.0
51.1046 3033.0
51.1714 2983.0
51.2382 2859.0
51.3051 3023.0
51.3719 3019.0
51.4388 3078.0
51.5056 2905.0
51.5725 2906.0
51.6393 2874.0
51.7062 2893.0
51.773 2973.0
51.8399 2948.0
51.9067 2890.0
51.9735 3021.0
52.0404 3012.0
52.1072 2902.0
52.1741 2865.0
52.2409 2890.0
52.3078 2972.0
52.3746 2992.0
52.4415 2961.0
52.5083 3102.0
52.5751 2915.0
52.642 3028.0
52.7088 2844.0
52.7757 2907.0
52.8425 2954.0
52.9094 2893.0
52.9762 2840.0
53.0431 2872.0
53.1099 2863.0
53.1768 2938.0
53.2436 2894.0
53.3104 2955.0
53.3773 2930.0
53.4441 2796.0
53.511 2921.0
53.5778 2965.0
53.6447 2887.0
53.7115 2916.0
53.7784 2938.0
53.8452 2814.0
53.9121 2860.0
53.9789 2881.0
54.0457 2916.0
54.1126 2844.0
54.1794 2980.0
54.2463 2840.0
54.3131 2923.0
54.38 2987.0
54.4468 2842.0
54.5137 2848.0
54.5805 2987.0
54.6473 2866.0
54.7142 2940.0
54.781 2935.0
54.8479 2880.0
54.9147 2809.0
54.9816 2986.0
55.0484 3002.0
55.1153 2913.0
55.1821 2952.0
55.249 2921.0
55.3158 2909.0
55.3826 2943.0
55.4495 2785.0
55.5163 2755.0
55.5832 2949.0
55.65 2912.0
55.7169 2896.0
55.7837 2960.0
55.8506 2927.0
55.9174 2832.0
55.9842 3002.0
56.0511 2883.0
56.1179 2788.0
56.1848 2820.0
56.2516 2752.0
56.3185 2922.0
56.3853 2942.0
56.4522 2890.0
56.519 2866.0
56.5859 2818.0
56.6527 2880.0
56.7195 2918.0
56.7864 2909.0
56.8532 2874.0
56.9201 2904.0
56.9869 2850.0
57.0538 2923.0
57.1206 2838.0
57.1875 2883.0
57.2543 2859.0
57.3212 2814.0
57.388 2969.0
57.4548 2980.0
57.5217 2853.0
57.5885 2930.0
57.6554 2886.0
57.7222 2958.0
57.7891 2845.0
57.8559 2921.0
57.9228 2829.0
57.9896 2830.0
58.0564 2912.0
58.1233 2879.0
58.1901 2943.0
58.257 2967.0
58.3238 2821.0
58.3907 2839.0
58.4575 2892.0
58.5244 2951.0
58.5912 2958.0
58.6581 2922.0
58.7249 2962.0
58.7917 2929.0
58.8586 2847.0
58.9254 2866.0
58.9923 2865.0
59.0591 2898.0
59.126 2898.0
59.1928 2926.0
59.2597 2943.0
59.3265 2840.0
59.3933 2856.0
59.4602 2858.0
59.527 2932.0
59.5939 2813.0
59.6607 2929.0
59.7276 2990.0
59.7944 2829.0
59.8613 2855.0
59.9281 2869.0
59.995 2895.0
60.0618 2854.0
60.1286 2908.0
60.1955 2985.0
60.2623 2883.0
60.3292 2895.0
60.396 2993.0
60.4629 2905.0
60.5297 2995.0
60.5966 2909.0
60.6634 2847.0
60.7302 2942.0
60.7971 2895.0
60.8639 2863.0
60.9308 2911.0
60.9976 2833.0
61.0645 2968.0
61.1313 2862.0
61.1982 3017.0
61.265 2876.0
61.3319 2974.0
61.3987 2987.0
61.4655 2892.0
61.5324 2990.0
61.5992 2875.0
61.6661 2905.0
61.7329 2853.0
61.7998 2985.0
61.8666 2904.0
61.9335 2945.0
62.0003 2902.0
62.0672 2977.0
62.134 2956.0
62.2008 2958.0
62.2677 2849.0
62.3345 2987.0
62.4014 2860.0
62.4682 2972.0
62.5351 2913.0
62.6019 2951.0
62.6688 3002.0
62.7356 2983.0
62.8024 2976.0
62.8693 3057.0
62.9361 2890.0
63.003 2943.0
63.0698 2873.0
63.1367 2968.0
63.2035 2987.0
63.2704 3003.0
63.3372 2906.0
63.4041 2956.0
63.4709 2892.0
63.5377 2944.0
63.6046 2899.0
63.6714 2970.0
63.7383 2931.0
63.8051 2922.0
63.872 2907.0
63.9388 2876.0
64.0057 2947.0
64.0725 2990.0
64.1393 2867.0
64.2062 2904.0
64.273 2948.0
64.3399 2867.0
64.4067 2923.0
64.4736 2961.0
64.5404 2898.0
64.6073 2978.0
64.6741 2895.0
64.741 2923.0
64.8078 2896.0
64.8746 2973.0
64.9415 2927.0
65.0083 2926.0
65.0752 2899.0
65.142 2865.0
65.2089 2951.0
65.2757 2946.0
65.3426 2789.0
65.4094 2864.0
65.4762 2896.0
65.5431 2884.0
65.6099 2889.0
65.6768 2914.0
65.7436 2936.0
65.8105 2996.0
65.8773 2882.0
65.9442 2920.0
66.011 2988.0
66.0779 2920.0
66.1447 2884.0
66.2115 2955.0
66.2784 2878.0
66.3452 2929.0
66.4121 2844.0
66.4789 3019.0
66.5458 2923.0
66.6126 2916.0
66.6795 2838.0
66.7463 2867.0
66.8132 2862.0
66.88 2845.0
66.9468 2937.0
67.0137 2867.0
67.0805 2921.0
67.1474 2844.0
67.2142 2879.0
67.2811 2889.0
67.3479 2899.0
67.4148 2902.0
67.4816 2830.0
67.5484 2969.0
67.6153 2859.0
67.6821 2976.0
67.749 2932.0
67.8158 2837.0
67.8827 2974.0
67.9495 2933.0
68.0164 3024.0
68.0832 2846.0
68.1501 2834.0
68.2169 2956.0
68.2837 2977.0
68.3506 2833.0
68.4174 2899.0
68.4843 2990.0
68.5511 2863.0
68.618 2958.0
68.6848 2876.0
68.7517 2962.0
68.8185 2922.0
68.8853 2831.0
68.9522 2906.0
69.019 2873.0
69.0859 2874.0
69.1527 2984.0
69.2196 2851.0
69.2864 2902.0
69.3533 2898.0
69.4201 2877.0
69.487 2831.0
69.5538 2883.0
69.6206 2931.0
69.6875 2963.0
69.7543 2831.0
69.8212 2849.0
69.888 2854.0
69.9549 2857.0
70.0217 2869.0
70.0886 2757.0
70.1554 2891.0
70.2222 2994.0
70.2891 2779.0
70.3559 2837.0
70.4228 2929.0
70.4896 2902.0
70.5565 2869.0
70.6233 2871.0
70.6902 2831.0
70.757 2893.0
70.8239 2784.0
70.8907 2844.0
70.9575 2773.0
71.0244 2838.0
71.0912 2904.0
71.1581 2916.0
71.2249 2905.0
71.2918 2903.0
71.3586 2799.0
71.4255 2829.0
71.4923 2793.0
71.5592 2842.0
71.626 2930.0
71.6928 2914.0
71.7597 2835.0
71.8265 2850.0
71.8934 2886.0
71.9602 2914.0
72.0271 2936.0
72.0939 2823.0
72.1608 2795.0
72.2276 2841.0
72.2944 2847.0
72.3613 2857.0
72.4281 2872.0
72.495 2828.0
72.5618 2939.0
72.6287 2839.0
72.6955 2907.0
72.7624 2844.0
72.8292 2911.0
72.8961 2798.0
72.9629 2855.0
73.0297 2921.0
73.0966 2834.0
73.1634 2854.0
73.2303 2807.0
73.2971 2888.0
73.364 2865.0
73.4308 2717.0
73.4977 2825.0
73.5645 2773.0
73.6313 2844.0
73.6982 2837.0
73.765 2742.0
73.8319 2866.0
73.8987 2752.0
73.9656 2847.0
74.0324 2814.0
74.0993 2825.0
74.1661 2799.0
74.233 2795.0
74.2998 2849.0
74.3666 2777.0
74.4335 2860.0
74.5003 2841.0
74.5672 2816.0
74.634 2875.0
74.7009 2871.0
74.7677 2842.0
74.8346 2816.0
74.9014 2823.0
74.9683 2692.0
75.0351 2781.0
75.1019 2805.0
75.1688 2765.0
75.2356 2829.0
75.3025 2745.0
75.3693 2786.0
75.4362 2779.0
75.503 2746.0
75.5699 2900.0
75.6367 2863.0
75.7035 2816.0
75.7704 2827.0
75.8372 2817.0
75.9041 2821.0
75.9709 2746.0
76.0378 2847.0
76.1046 2843.0
76.1715 2716.0
76.2383 2680.0
76.3052 2780.0
76.372 2783.0
76.4388 2707.0
76.5057 2772.0
76.5725 2794.0
76.6394 2717.0
76.7062 2797.0
76.7731 2839.0
76.8399 2842.0
76.9068 2825.0
76.9736 2801.0
77.0404 2779.0
77.1073 2818.0
77.1741 2796.0
77.241 2794.0
77.3078 2800.0
77.3747 2750.0
77.4415 2825.0
77.5084 2806.0
77.5752 2679.0
77.6421 2773.0
77.7089 2699.0
77.7757 2774.0
77.8426 2744.0
77.9094 2802.0
77.9763 2740.0
78.0431 2835.0
78.11 2661.0
78.1768 2742.0
78.2437 2766.0
78.3105 2811.0
78.3773 2735.0
78.4442 2795.0
78.511 2748.0
78.5779 2838.0
78.6447 2843.0
78.7116 2709.0
78.7784 2792.0
78.8453 2757.0
78.9121 2663.0
78.979 2616.0
79.0458 2727.0
79.1126 2762.0
79.1795 2769.0
79.2463 2638.0
79.3132 2708.0
79.38 2751.0
79.4469 2649.0
79.5137 2649.0
79.5806 2748.0
79.6474 2747.0
79.7143 2786.0
79.7811 2694.0
79.8479 2763.0
79.9148 2653.0
79.9816 2685.0
80.0485 2718.0
80.1153 2695.0
80.1822 2747.0
80.249 2627.0
80.3159 2664.0
80.3827 2682.0
80.4495 2603.0
80.5164 2571.0
80.5832 2712.0
80.6501 2685.0
80.7169 2636.0
80.7838 2611.0
80.8506 2599.0
80.9175 2607.0
80.9843 2670.0
81.0512 2619.0
81.118 2698.0
81.1848 2657.0
81.2517 2658.0
81.3185 2662.0
81.3854 2598.0
81.4522 2610.0
81.5191 2668.0
81.5859 2659.0
81.6528 2603.0
81.7196 2769.0
81.7864 2685.0
81.8533 2623.0
81.9201 2567.0
81.987 2543.0
82.0538 2676.0
82.1207 2587.0
82.1875 2607.0
82.2544 2660.0
82.3212 2548.0
82.3881 2598.0
82.4549 2593.0
82.5217 2548.0
82.5886 2612.0
82.6554 2554.0
82.7223 2584.0
82.7891 2518.0
82.856 2578.0
82.9228 2628.0
82.9897 2663.0
83.0565 2561.0
83.1233 2478.0
83.1902 2518.0
83.257 2540.0
83.3239 2532.0
83.3907 2500.0
83.4576 2515.0
83.5244 2480.0
83.5913 2560.0
83.6581 2544.0
83.725 2514.0
83.7918 2530.0
83.8586 2537.0
83.9255 2595.0
83.9923 2334.0
84.0592 2357.0
84.126 2462.0
84.1929 2464.0
84.2597 2423.0
84.3266 2518.0
84.3934 2537.0
84.4603 2490.0
84.5271 2483.0
84.5939 2532.0
84.6608 2440.0
84.7276 2567.0
84.7945 2463.0
84.8613 2483.0
84.9282 2509.0
84.995 2402.0
85.0619 2432.0
85.1287 2401.0
85.1955 2408.0
85.2624 2436.0
85.3292 2502.0
85.3961 2519.0
85.4629 2395.0
85.5298 2455.0
85.5966 2389.0
85.6635 2463.0
85.7303 2422.0
85.7972 2439.0
85.864 2446.0
85.9308 2400.0
85.9977 2519.0
86.0645 2394.0
86.1314 2431.0
86.1982 2536.0
86.2651 2498.0
86.3319 2333.0
86.3988 2384.0
86.4656 2430.0
86.5324 2375.0
86.5993 2502.0
86.6661 2407.0
86.733 2406.0
86.7998 2325.0
86.8667 2435.0
86.9335 2443.0
87.0004 2395.0
87.0672 2358.0
87.1341 2355.0
87.2009 2443.0
87.2677 2371.0
87.3346 2435.0
87.4014 2516.0
87.4683 2348.0
87.5351 2333.0
87.602 2355.0
87.6688 2315.0
87.7357 2283.0
87.8025 2372.0
87.8693 2353.0
87.9362 2313.0
88.003 2364.0
88.0699 2348.0
88.1367 2355.0
88.2036 2331.0
88.2704 2285.0
88.3373 2418.0
88.4041 2390.0
88.471 2356.0
88.5378 2348.0
88.6046 2318.0
88.6715 2387.0
88.7383 2301.0
88.8052 2327.0
88.872 2278.0
88.9389 2334.0
89.0057 2320.0
89.0726 2242.0
89.1394 2325.0
89.2063 2432.0
89.2731 2343.0
89.3399 2304.0
89.4068 2324.0
89.4736 2442.0
89.5405 2387.0
89.6073 2338.0
89.6742 2229.0
89.741 2376.0
89.8079 2306.0
89.8747 2368.0
89.9415 2234.0
89.9583 2342.0