File: code/XRD_Analysis/External Sources/Fabian/20240404_RUB-50_moreMat_calc600C.xy
4.98146 1246.0
5.0483 1259.0
5.11515 1170.0
5.18199 1152.0
5.24884 1132.0
5.31568 1136.0
5.38253 1146.0
5.44937 1072.0
5.51622 1012.0
5.58306 1112.0
5.64991 1071.0
5.71675 1040.0
5.7836 993.0
5.85044 963.0
5.91729 1027.0
5.98413 1049.0
6.05098 987.0
6.11782 947.0
6.18467 1047.0
6.25151 945.0
6.31836 934.0
6.3852 912.0
6.45205 934.0
6.51889 993.0
6.58574 977.0
6.65258 876.0
6.71943 935.0
6.78627 972.0
6.85312 960.0
6.91996 984.0
6.98681 1039.0
7.05365 1091.0
7.1205 1168.0
7.18734 1281.0
7.25419 1464.0
7.32103 1589.0
7.38788 1515.0
7.45472 1363.0
7.52157 1150.0
7.58841 1062.0
7.65526 967.0
7.7221 1044.0
7.78895 1078.0
7.85579 1079.0
7.92264 1107.0
7.98948 1118.0
8.05633 1182.0
8.12317 1103.0
8.19002 1192.0
8.25686 1163.0
8.32371 1138.0
8.39055 1089.0
8.4574 1172.0
8.52424 1192.0
8.59109 1128.0
8.65793 1118.0
8.72478 1064.0
8.79162 1062.0
8.85847 1078.0
8.92532 1114.0
8.99216 1029.0
9.05901 1109.0
9.12585 1027.0
9.1927 1037.0
9.25954 1059.0
9.32639 1047.0
9.39323 1056.0
9.46008 1004.0
9.52692 1000.0
9.59377 1038.0
9.66061 1067.0
9.72746 1049.0
9.7943 1054.0
9.86115 1095.0
9.92799 1033.0
9.99484 1036.0
10.0617 998.0
10.1285 987.0
10.1954 912.0
10.2622 964.0
10.3291 867.0
10.3959 846.0
10.4628 844.0
10.5296 802.0
10.5964 776.0
10.6633 764.0
10.7301 712.0
10.797 658.0
10.8638 690.0
10.9307 691.0
10.9975 614.0
11.0644 613.0
11.1312 643.0
11.198 599.0
11.2649 631.0
11.3317 583.0
11.3986 613.0
11.4654 604.0
11.5323 538.0
11.5991 540.0
11.666 525.0
11.7328 552.0
11.7997 567.0
11.8665 540.0
11.9333 545.0
12.0002 527.0
12.067 500.0
12.1339 532.0
12.2007 535.0
12.2676 550.0
12.3344 538.0
12.4013 544.0
12.4681 563.0
12.5349 549.0
12.6018 552.0
12.6686 615.0
12.7355 625.0
12.8023 617.0
12.8692 604.0
12.936 690.0
13.0029 619.0
13.0697 587.0
13.1366 573.0
13.2034 580.0
13.2702 520.0
13.3371 540.0
13.4039 507.0
13.4708 517.0
13.5376 532.0
13.6045 518.0
13.6713 550.0
13.7382 531.0
13.805 537.0
13.8719 597.0
13.9387 564.0
14.0055 568.0
14.0724 599.0
14.1392 604.0
14.2061 618.0
14.2729 644.0
14.3398 744.0
14.4066 861.0
14.4735 897.0
14.5403 1102.0
14.6071 1130.0
14.674 1131.0
14.7408 1033.0
14.8077 996.0
14.8745 833.0
14.9414 872.0
15.0082 816.0
15.0751 846.0
15.1419 788.0
15.2088 732.0
15.2756 738.0
15.3424 721.0
15.4093 703.0
15.4761 707.0
15.543 697.0
15.6098 709.0
15.6767 713.0
15.7435 631.0
15.8104 694.0
15.8772 648.0
15.944 642.0
16.0109 712.0
16.0777 712.0
16.1446 667.0
16.2114 638.0
16.2783 660.0
16.3451 643.0
16.412 641.0
16.4788 585.0
16.5457 580.0
16.6125 498.0
16.6793 512.0
16.7462 474.0
16.813 519.0
16.8799 518.0
16.9467 545.0
17.0136 495.0
17.0804 477.0
17.1473 490.0
17.2141 480.0
17.2809 436.0
17.3478 465.0
17.4146 497.0
17.4815 466.0
17.5483 474.0
17.6152 470.0
17.682 470.0
17.7489 432.0
17.8157 495.0
17.8826 491.0
17.9494 496.0
18.0162 507.0
18.0831 496.0
18.1499 506.0
18.2168 497.0
18.2836 525.0
18.3505 514.0
18.4173 531.0
18.4842 579.0
18.551 545.0
18.6179 521.0
18.6847 588.0
18.7515 587.0
18.8184 550.0
18.8852 613.0
18.9521 619.0
19.0189 660.0
19.0858 682.0
19.1526 690.0
19.2195 663.0
19.2863 693.0
19.3531 658.0
19.42 701.0
19.4868 685.0
19.5537 695.0
19.6205 773.0
19.6874 766.0
19.7542 751.0
19.8211 786.0
19.8879 844.0
19.9548 778.0
20.0216 790.0
20.0884 864.0
20.1553 825.0
20.2221 852.0
20.289 863.0
20.3558 866.0
20.4227 833.0
20.4895 816.0
20.5564 849.0
20.6232 790.0
20.69 821.0
20.7569 752.0
20.8237 778.0
20.8906 747.0
20.9574 746.0
21.0243 730.0
21.0911 738.0
21.158 757.0
21.2248 728.0
21.2917 710.0
21.3585 763.0
21.4253 705.0
21.4922 790.0
21.559 760.0
21.6259 856.0
21.6927 836.0
21.7596 880.0
21.8264 949.0
21.8933 1004.0
21.9601 1041.0
22.0269 1113.0
22.0938 1072.0
22.1606 1140.0
22.2275 1203.0
22.2943 1312.0
22.3612 1354.0
22.428 1326.0
22.4949 1429.0
22.5617 1462.0
22.6286 1481.0
22.6954 1527.0
22.7622 1582.0
22.8291 1579.0
22.8959 1562.0
22.9628 1487.0
23.0296 1446.0
23.0965 1468.0
23.1633 1454.0
23.2302 1379.0
23.297 1286.0
23.3639 1267.0
23.4307 1167.0
23.4975 1153.0
23.5644 1242.0
23.6312 1158.0
23.6981 1149.0
23.7649 1170.0
23.8318 1076.0
23.8986 1058.0
23.9655 1071.0
24.0323 1120.0
24.0991 1032.0
24.166 997.0
24.2328 991.0
24.2997 954.0
24.3665 892.0
24.4334 920.0
24.5002 880.0
24.5671 868.0
24.6339 805.0
24.7008 813.0
24.7676 899.0
24.8344 861.0
24.9013 847.0
24.9681 893.0
25.035 943.0
25.1018 943.0
25.1687 1015.0
25.2355 1107.0
25.3024 1175.0
25.3692 1230.0
25.436 1227.0
25.5029 1138.0
25.5697 1240.0
25.6366 1069.0
25.7034 1060.0
25.7703 1101.0
25.8371 1098.0
25.904 1143.0
25.9708 1260.0
26.0377 1377.0
26.1045 1458.0
26.1713 1732.0
26.2382 1891.0
26.305 2042.0
26.3719 2025.0
26.4387 1938.0
26.5056 1668.0
26.5724 1574.0
26.6393 1447.0
26.7061 1334.0
26.773 1228.0
26.8398 1205.0
26.9066 1231.0
26.9735 1231.0
27.0403 1313.0
27.1072 1242.0
27.174 1224.0
27.2409 1273.0
27.3077 1267.0
27.3746 1183.0
27.4414 1091.0
27.5082 1125.0
27.5751 1163.0
27.6419 1111.0
27.7088 1032.0
27.7756 967.0
27.8425 979.0
27.9093 1029.0
27.9762 1009.0
28.043 896.0
28.1099 900.0
28.1767 971.0
28.2435 963.0
28.3104 913.0
28.3772 871.0
28.4441 902.0
28.5109 790.0
28.5778 878.0
28.6446 812.0
28.7115 825.0
28.7783 838.0
28.8451 813.0
28.912 807.0
28.9788 761.0
29.0457 782.0
29.1125 757.0
29.1794 762.0
29.2462 754.0
29.3131 766.0
29.3799 737.0
29.4468 727.0
29.5136 704.0
29.5804 710.0
29.6473 676.0
29.7141 662.0
29.781 680.0
29.8478 649.0
29.9147 610.0
29.9815 659.0
30.0484 642.0
30.1152 683.0
30.182 649.0
30.2489 636.0
30.3157 605.0
30.3826 612.0
30.4494 615.0
30.5163 558.0
30.5831 617.0
30.65 570.0
30.7168 619.0
30.7837 596.0
30.8505 614.0
30.9173 538.0
30.9842 589.0
31.051 531.0
31.1179 538.0
31.1847 473.0
31.2516 560.0
31.3184 595.0
31.3853 548.0
31.4521 548.0
31.519 535.0
31.5858 565.0
31.6526 622.0
31.7195 605.0
31.7863 643.0
31.8532 674.0
31.92 585.0
31.9869 603.0
32.0537 690.0
32.1206 653.0
32.1874 628.0
32.2542 594.0
32.3211 607.0
32.3879 605.0
32.4548 583.0
32.5216 606.0
32.5885 580.0
32.6553 585.0
32.7222 614.0
32.789 573.0
32.8559 576.0
32.9227 592.0
32.9895 571.0
33.0564 520.0
33.1232 622.0
33.1901 689.0
33.2569 570.0
33.3238 589.0
33.3906 685.0
33.4575 601.0
33.5243 650.0
33.5911 634.0
33.658 690.0
33.7248 657.0
33.7917 604.0
33.8585 648.0
33.9254 662.0
33.9922 631.0
34.0591 638.0
34.1259 578.0
34.1928 606.0
34.2596 579.0
34.3264 585.0
34.3933 559.0
34.4601 610.0
34.527 538.0
34.5938 597.0
34.6607 618.0
34.7275 553.0
34.7944 567.0
34.8612 592.0
34.928 550.0
34.9949 509.0
35.0617 557.0
35.1286 512.0
35.1954 511.0
35.2623 542.0
35.3291 524.0
35.396 495.0
35.4628 522.0
35.5297 485.0
35.5965 460.0
35.6633 453.0
35.7302 479.0
35.797 518.0
35.8639 426.0
35.9307 479.0
35.9976 446.0
36.0644 435.0
36.1313 474.0
36.1981 462.0
36.265 449.0
36.3318 473.0
36.3986 440.0
36.4655 459.0
36.5323 464.0
36.5992 465.0
36.666 469.0
36.7329 480.0
36.7997 446.0
36.8666 469.0
36.9334 455.0
37.0002 469.0
37.0671 463.0
37.1339 454.0
37.2008 376.0
37.2676 409.0
37.3345 407.0
37.4013 408.0
37.4682 415.0
37.535 416.0
37.6019 403.0
37.6687 420.0
37.7355 414.0
37.8024 395.0
37.8692 400.0
37.9361 442.0
38.0029 418.0
38.0698 436.0
38.1366 482.0
38.2035 494.0
38.2703 465.0
38.3371 447.0
38.404 472.0
38.4708 429.0
38.5377 434.0
38.6045 420.0
38.6714 439.0
38.7382 368.0
38.8051 385.0
38.8719 379.0
38.9388 385.0
39.0056 349.0
39.0724 391.0
39.1393 347.0
39.2061 391.0
39.273 339.0
39.3398 364.0
39.4067 411.0
39.4735 368.0
39.5404 349.0
39.6072 375.0
39.6741 342.0
39.7409 334.0
39.8077 325.0
39.8746 363.0
39.9414 375.0
40.0083 355.0
40.0751 340.0
40.142 369.0
40.2088 330.0
40.2757 360.0
40.3425 336.0
40.4093 351.0
40.4762 369.0
40.543 369.0
40.6099 386.0
40.6767 381.0
40.7436 350.0
40.8104 385.0
40.8773 392.0
40.9441 384.0
41.011 388.0
41.0778 346.0
41.1446 376.0
41.2115 389.0
41.2783 344.0
41.3452 376.0
41.412 364.0
41.4789 350.0
41.5457 366.0
41.6126 391.0
41.6794 331.0
41.7462 351.0
41.8131 365.0
41.8799 375.0
41.9468 361.0
42.0136 336.0
42.0805 321.0
42.1473 361.0
42.2142 363.0
42.281 365.0
42.3479 369.0
42.4147 364.0
42.4815 386.0
42.5484 376.0
42.6152 330.0
42.6821 357.0
42.7489 354.0
42.8158 322.0
42.8826 352.0
42.9495 371.0
43.0163 344.0
43.0831 384.0
43.15 378.0
43.2168 365.0
43.2837 352.0
43.3505 354.0
43.4174 375.0
43.4842 376.0
43.5511 384.0
43.6179 366.0
43.6848 353.0
43.7516 357.0
43.8184 367.0
43.8853 381.0
43.9521 360.0
44.019 362.0
44.0858 334.0
44.1527 358.0
44.2195 338.0
44.2864 348.0
44.3532 355.0
44.4201 338.0
44.4869 339.0
44.5537 364.0
44.6206 416.0
44.6874 350.0
44.7543 407.0
44.8211 394.0
44.888 417.0
44.9548 397.0
45.0217 389.0
45.0885 418.0
45.1553 409.0
45.2222 462.0
45.289 377.0
45.3559 382.0
45.4227 403.0
45.4896 385.0
45.5564 396.0
45.6233 378.0
45.6901 378.0
45.757 387.0
45.8238 400.0
45.8906 341.0
45.9575 373.0
46.0243 413.0
46.0912 409.0
46.158 394.0
46.2249 420.0
46.2917 403.0
46.3586 455.0
46.4254 403.0
46.4922 435.0
46.5591 460.0
46.6259 441.0
46.6928 444.0
46.7596 436.0
46.8265 433.0
46.8933 435.0
46.9602 386.0
47.027 461.0
47.0939 447.0
47.1607 393.0
47.2275 404.0
47.2944 410.0
47.3612 419.0
47.4281 397.0
47.4949 408.0
47.5618 379.0
47.6286 411.0
47.6955 377.0
47.7623 364.0
47.8291 382.0
47.896 384.0
47.9628 331.0
48.0297 353.0
48.0965 394.0
48.1634 357.0
48.2302 382.0
48.2971 410.0
48.3639 407.0
48.4308 392.0
48.4976 392.0
48.5644 385.0
48.6313 407.0
48.6981 447.0
48.765 401.0
48.8318 416.0
48.8987 435.0
48.9655 391.0
49.0324 389.0
49.0992 444.0
49.1661 368.0
49.2329 388.0
49.2997 377.0
49.3666 417.0
49.4334 401.0
49.5003 419.0
49.5671 385.0
49.634 384.0
49.7008 382.0
49.7677 381.0
49.8345 417.0
49.9013 386.0
49.9682 411.0
50.035 364.0
50.1019 401.0
50.1687 351.0
50.2356 377.0
50.3024 351.0
50.3693 367.0
50.4361 424.0
50.503 357.0
50.5698 384.0
50.6366 382.0
50.7035 357.0
50.7703 369.0
50.8372 353.0
50.904 385.0
50.9709 366.0
51.0377 367.0
51.1046 375.0
51.1714 403.0
51.2382 380.0
51.3051 379.0
51.3719 381.0
51.4388 381.0
51.5056 376.0
51.5725 366.0
51.6393 373.0
51.7062 392.0
51.773 375.0
51.8399 422.0
51.9067 375.0
51.9735 376.0
52.0404 381.0
52.1072 365.0
52.1741 342.0
52.2409 393.0
52.3078 408.0
52.3746 383.0
52.4415 368.0
52.5083 388.0
52.5751 375.0
52.642 371.0
52.7088 381.0
52.7757 369.0
52.8425 370.0
52.9094 412.0
52.9762 346.0
53.0431 361.0
53.1099 349.0
53.1768 399.0
53.2436 308.0
53.3104 383.0
53.3773 344.0
53.4441 388.0
53.511 324.0
53.5778 358.0
53.6447 334.0
53.7115 357.0
53.7784 322.0
53.8452 360.0
53.9121 331.0
53.9789 325.0
54.0457 320.0
54.1126 334.0
54.1794 328.0
54.2463 344.0
54.3131 331.0
54.38 323.0
54.4468 329.0
54.5137 356.0
54.5805 331.0
54.6473 338.0
54.7142 299.0
54.781 326.0
54.8479 325.0
54.9147 332.0
54.9816 344.0
55.0484 326.0
55.1153 329.0
55.1821 325.0
55.249 316.0
55.3158 300.0
55.3826 295.0
55.4495 297.0
55.5163 318.0
55.5832 320.0
55.65 342.0
55.7169 300.0
55.7837 311.0
55.8506 338.0
55.9174 310.0
55.9842 308.0
56.0511 355.0
56.1179 349.0
56.1848 313.0
56.2516 325.0
56.3185 321.0
56.3853 316.0
56.4522 348.0
56.519 340.0
56.5859 357.0
56.6527 348.0
56.7195 293.0
56.7864 381.0
56.8532 341.0
56.9201 309.0
56.9869 334.0
57.0538 336.0
57.1206 326.0
57.1875 365.0
57.2543 339.0
57.3212 369.0
57.388 329.0
57.4548 362.0
57.5217 350.0
57.5885 303.0
57.6554 340.0
57.7222 311.0
57.7891 314.0
57.8559 319.0
57.9228 307.0
57.9896 328.0
58.0564 349.0
58.1233 361.0
58.1901 323.0
58.257 300.0
58.3238 321.0
58.3907 294.0
58.4575 356.0
58.5244 318.0
58.5912 290.0
58.6581 329.0
58.7249 309.0
58.7917 299.0
58.8586 357.0
58.9254 319.0
58.9923 328.0
59.0591 340.0
59.126 345.0
59.1928 356.0
59.2597 325.0
59.3265 366.0
59.3933 328.0
59.4602 337.0
59.527 322.0
59.5939 340.0
59.6607 277.0
59.7276 310.0
59.7944 365.0
59.8613 341.0
59.9281 355.0
59.995 340.0
60.0618 329.0
60.1286 340.0
60.1955 336.0
60.2623 335.0
60.3292 316.0
60.396 342.0
60.4629 337.0
60.5297 338.0
60.5966 349.0
60.6634 340.0
60.7302 348.0
60.7971 338.0
60.8639 338.0
60.9308 292.0
60.9976 350.0
61.0645 348.0
61.1313 363.0
61.1982 357.0
61.265 363.0
61.3319 325.0
61.3987 305.0
61.4655 315.0
61.5324 353.0
61.5992 320.0
61.6661 342.0
61.7329 352.0
61.7998 335.0
61.8666 339.0
61.9335 368.0
62.0003 366.0
62.0672 336.0
62.134 330.0
62.2008 360.0
62.2677 321.0
62.3345 356.0
62.4014 318.0
62.4682 365.0
62.5351 355.0
62.6019 350.0
62.6688 351.0
62.7356 349.0
62.8024 344.0
62.8693 336.0
62.9361 326.0
63.003 348.0
63.0698 366.0
63.1367 375.0
63.2035 334.0
63.2704 326.0
63.3372 346.0
63.4041 341.0
63.4709 344.0
63.5377 344.0
63.6046 326.0
63.6714 321.0
63.7383 322.0
63.8051 375.0
63.872 367.0
63.9388 332.0
64.0057 310.0
64.0725 341.0
64.1393 348.0
64.2062 323.0
64.273 338.0
64.3399 322.0
64.4067 336.0
64.4736 358.0
64.5404 339.0
64.6073 353.0
64.6741 338.0
64.741 340.0
64.8078 336.0
64.8746 409.0
64.9415 355.0
65.0083 361.0
65.0752 372.0
65.142 364.0
65.2089 371.0
65.2757 347.0
65.3426 340.0
65.4094 336.0
65.4762 395.0
65.5431 373.0
65.6099 415.0
65.6768 407.0
65.7436 410.0
65.8105 435.0
65.8773 434.0
65.9442 439.0
66.011 402.0
66.0779 436.0
66.1447 435.0
66.2115 432.0
66.2784 429.0
66.3452 418.0
66.4121 441.0
66.4789 407.0
66.5458 386.0
66.6126 387.0
66.6795 365.0
66.7463 400.0
66.8132 376.0
66.88 376.0
66.9468 400.0
67.0137 371.0
67.0805 372.0
67.1474 358.0
67.2142 351.0
67.2811 364.0
67.3479 367.0
67.4148 351.0
67.4816 326.0
67.5484 336.0
67.6153 340.0
67.6821 357.0
67.749 337.0
67.8158 344.0
67.8827 315.0
67.9495 334.0
68.0164 325.0
68.0832 318.0
68.1501 318.0
68.2169 366.0
68.2837 328.0
68.3506 353.0
68.4174 303.0
68.4843 350.0
68.5511 320.0
68.618 284.0
68.6848 356.0
68.7517 301.0
68.8185 323.0
68.8853 364.0
68.9522 329.0
69.019 302.0
69.0859 329.0
69.1527 302.0
69.2196 334.0
69.2864 324.0
69.3533 334.0
69.4201 341.0
69.487 311.0
69.5538 311.0
69.6206 303.0
69.6875 311.0
69.7543 285.0
69.8212 337.0
69.888 324.0
69.9549 300.0
70.0217 330.0
70.0886 336.0
70.1554 350.0
70.2222 311.0
70.2891 309.0
70.3559 313.0
70.4228 317.0
70.4896 325.0
70.5565 313.0
70.6233 338.0
70.6902 316.0
70.757 325.0
70.8239 315.0
70.8907 319.0
70.9575 320.0
71.0244 333.0
71.0912 333.0
71.1581 283.0
71.2249 344.0
71.2918 341.0
71.3586 319.0
71.4255 307.0
71.4923 299.0
71.5592 322.0
71.626 286.0
71.6928 301.0
71.7597 273.0
71.8265 301.0
71.8934 294.0
71.9602 321.0
72.0271 291.0
72.0939 311.0
72.1608 306.0
72.2276 280.0
72.2944 302.0
72.3613 292.0
72.4281 290.0
72.495 303.0
72.5618 298.0
72.6287 293.0
72.6955 295.0
72.7624 273.0
72.8292 288.0
72.8961 319.0
72.9629 334.0
73.0297 318.0
73.0966 317.0
73.1634 302.0
73.2303 287.0
73.2971 311.0
73.364 287.0
73.4308 292.0
73.4977 313.0
73.5645 292.0
73.6313 326.0
73.6982 314.0
73.765 332.0
73.8319 325.0
73.8987 326.0
73.9656 314.0
74.0324 288.0
74.0993 293.0
74.1661 303.0
74.233 340.0
74.2998 272.0
74.3666 341.0
74.4335 285.0
74.5003 297.0
74.5672 298.0
74.634 340.0
74.7009 304.0
74.7677 267.0
74.8346 315.0
74.9014 290.0
74.9683 310.0
75.0351 279.0
75.1019 297.0
75.1688 298.0
75.2356 277.0
75.3025 292.0
75.3693 290.0
75.4362 311.0
75.503 289.0
75.5699 272.0
75.6367 260.0
75.7035 286.0
75.7704 309.0
75.8372 254.0
75.9041 292.0
75.9709 285.0
76.0378 292.0
76.1046 273.0
76.1715 334.0
76.2383 289.0
76.3052 297.0
76.372 280.0
76.4388 306.0
76.5057 268.0
76.5725 274.0
76.6394 256.0
76.7062 263.0
76.7731 270.0
76.8399 298.0
76.9068 261.0
76.9736 270.0
77.0404 304.0
77.1073 276.0
77.1741 289.0
77.241 301.0
77.3078 244.0
77.3747 304.0
77.4415 295.0
77.5084 274.0
77.5752 286.0
77.6421 276.0
77.7089 299.0
77.7757 301.0
77.8426 298.0
77.9094 282.0
77.9763 318.0
78.0431 306.0
78.11 279.0
78.1768 299.0
78.2437 316.0
78.3105 279.0
78.3773 306.0
78.4442 282.0
78.511 326.0
78.5779 302.0
78.6447 286.0
78.7116 345.0
78.7784 282.0
78.8453 255.0
78.9121 250.0
78.979 276.0
79.0458 283.0
79.1126 303.0
79.1795 307.0
79.2463 304.0
79.3132 282.0
79.38 300.0
79.4469 294.0
79.5137 284.0
79.5806 290.0
79.6474 293.0
79.7143 292.0
79.7811 309.0
79.8479 309.0
79.9148 288.0
79.9816 301.0
80.0485 243.0
80.1153 271.0
80.1822 280.0
80.249 292.0
80.3159 283.0
80.3827 242.0
80.4495 299.0
80.5164 272.0
80.5832 240.0
80.6501 231.0
80.7169 274.0
80.7838 261.0
80.8506 266.0
80.9175 288.0
80.9843 276.0
81.0512 266.0
81.118 280.0
81.1848 262.0
81.2517 238.0
81.3185 256.0
81.3854 236.0
81.4522 266.0
81.5191 258.0
81.5859 246.0
81.6528 242.0
81.7196 259.0
81.7864 229.0
81.8533 235.0
81.9201 223.0
81.987 251.0
82.0538 250.0
82.1207 217.0
82.1875 245.0
82.2544 242.0
82.3212 239.0
82.3881 224.0
82.4549 239.0
82.5217 219.0
82.5886 231.0
82.6554 233.0
82.7223 212.0
82.7891 246.0
82.856 248.0
82.9228 205.0
82.9897 233.0
83.0565 210.0
83.1233 244.0
83.1902 221.0
83.257 231.0
83.3239 232.0
83.3907 211.0
83.4576 222.0
83.5244 200.0
83.5913 192.0
83.6581 221.0
83.725 216.0
83.7918 238.0
83.8586 231.0
83.9255 223.0
83.9923 190.0
84.0592 236.0
84.126 192.0
84.1929 212.0
84.2597 219.0
84.3266 222.0
84.3934 210.0
84.4603 209.0
84.5271 204.0
84.5939 211.0
84.6608 221.0
84.7276 192.0
84.7945 191.0
84.8613 195.0
84.9282 201.0
84.995 198.0
85.0619 215.0
85.1287 177.0
85.1955 191.0
85.2624 175.0
85.3292 206.0
85.3961 184.0
85.4629 201.0
85.5298 214.0
85.5966 211.0
85.6635 197.0
85.7303 200.0
85.7972 189.0
85.864 185.0
85.9308 176.0
85.9977 191.0
86.0645 207.0
86.1314 201.0
86.1982 174.0
86.2651 185.0
86.3319 209.0
86.3988 189.0
86.4656 166.0
86.5324 176.0
86.5993 183.0
86.6661 173.0
86.733 173.0
86.7998 170.0
86.8667 181.0
86.9335 207.0
87.0004 167.0
87.0672 147.0
87.1341 173.0
87.2009 190.0
87.2677 168.0
87.3346 176.0
87.4014 190.0
87.4683 186.0
87.5351 182.0
87.602 208.0
87.6688 191.0
87.7357 151.0
87.8025 168.0
87.8693 186.0
87.9362 149.0
88.003 183.0
88.0699 176.0
88.1367 209.0
88.2036 177.0
88.2704 178.0
88.3373 163.0
88.4041 176.0
88.471 170.0
88.5378 153.0
88.6046 168.0
88.6715 182.0
88.7383 165.0
88.8052 172.0
88.872 193.0
88.9389 182.0
89.0057 163.0
89.0726 181.0
89.1394 160.0
89.2063 176.0
89.2731 165.0
89.3399 155.0
89.4068 193.0
89.4736 168.0
89.5405 155.0
89.6073 154.0
89.6742 188.0
89.741 161.0
89.8079 183.0
89.8747 163.0
89.9415 168.0