File: code/XRD_Analysis/External Sources/Fabian/20240223_ZnZrOx.xy
4.98146 1126.0
5.0483 1044.0
5.11515 1017.0
5.18199 1013.0
5.24884 979.0
5.31568 995.0
5.38253 980.0
5.44937 990.0
5.51622 931.0
5.58306 918.0
5.64991 879.0
5.71675 888.0
5.7836 829.0
5.85044 829.0
5.91729 829.0
5.98413 847.0
6.05098 839.0
6.11782 819.0
6.18467 831.0
6.25151 761.0
6.31836 794.0
6.3852 757.0
6.45205 746.0
6.51889 769.0
6.58574 734.0
6.65258 710.0
6.71943 695.0
6.78627 722.0
6.85312 728.0
6.91996 690.0
6.98681 709.0
7.05365 698.0
7.1205 659.0
7.18734 686.0
7.25419 692.0
7.32103 692.0
7.38788 618.0
7.45472 672.0
7.52157 669.0
7.58841 634.0
7.65526 673.0
7.7221 693.0
7.78895 603.0
7.85579 621.0
7.92264 666.0
7.98948 643.0
8.05633 587.0
8.12317 594.0
8.19002 599.0
8.25686 581.0
8.32371 584.0
8.39055 528.0
8.4574 560.0
8.52424 523.0
8.59109 557.0
8.65793 540.0
8.72478 543.0
8.79162 552.0
8.85847 539.0
8.92532 523.0
8.99216 535.0
9.05901 498.0
9.12585 537.0
9.1927 518.0
9.25954 494.0
9.32639 504.0
9.39323 504.0
9.46008 500.0
9.52692 471.0
9.59377 473.0
9.66061 456.0
9.72746 512.0
9.7943 458.0
9.86115 487.0
9.92799 492.0
9.99484 500.0
10.0617 440.0
10.1285 445.0
10.1954 441.0
10.2622 479.0
10.3291 440.0
10.3959 394.0
10.4628 434.0
10.5296 438.0
10.5964 466.0
10.6633 441.0
10.7301 430.0
10.797 445.0
10.8638 411.0
10.9307 419.0
10.9975 398.0
11.0644 433.0
11.1312 385.0
11.198 381.0
11.2649 373.0
11.3317 366.0
11.3986 384.0
11.4654 424.0
11.5323 387.0
11.5991 381.0
11.666 356.0
11.7328 395.0
11.7997 367.0
11.8665 350.0
11.9333 370.0
12.0002 370.0
12.067 406.0
12.1339 372.0
12.2007 363.0
12.2676 348.0
12.3344 354.0
12.4013 337.0
12.4681 337.0
12.5349 351.0
12.6018 345.0
12.6686 370.0
12.7355 332.0
12.8023 372.0
12.8692 347.0
12.936 348.0
13.0029 334.0
13.0697 324.0
13.1366 305.0
13.2034 322.0
13.2702 319.0
13.3371 352.0
13.4039 298.0
13.4708 299.0
13.5376 314.0
13.6045 293.0
13.6713 314.0
13.7382 299.0
13.805 301.0
13.8719 299.0
13.9387 289.0
14.0055 285.0
14.0724 319.0
14.1392 306.0
14.2061 262.0
14.2729 306.0
14.3398 308.0
14.4066 304.0
14.4735 282.0
14.5403 258.0
14.6071 255.0
14.674 272.0
14.7408 278.0
14.8077 271.0
14.8745 279.0
14.9414 300.0
15.0082 291.0
15.0751 288.0
15.1419 250.0
15.2088 263.0
15.2756 295.0
15.3424 255.0
15.4093 289.0
15.4761 293.0
15.543 292.0
15.6098 258.0
15.6767 273.0
15.7435 241.0
15.8104 243.0
15.8772 232.0
15.944 263.0
16.0109 241.0
16.0777 237.0
16.1446 261.0
16.2114 250.0
16.2783 280.0
16.3451 242.0
16.412 222.0
16.4788 260.0
16.5457 258.0
16.6125 264.0
16.6793 266.0
16.7462 270.0
16.813 223.0
16.8799 215.0
16.9467 229.0
17.0136 229.0
17.0804 250.0
17.1473 262.0
17.2141 241.0
17.2809 242.0
17.3478 213.0
17.4146 228.0
17.4815 238.0
17.5483 213.0
17.6152 227.0
17.682 223.0
17.7489 228.0
17.8157 230.0
17.8826 223.0
17.9494 213.0
18.0162 233.0
18.0831 246.0
18.1499 224.0
18.2168 212.0
18.2836 244.0
18.3505 215.0
18.4173 241.0
18.4842 222.0
18.551 200.0
18.6179 204.0
18.6847 226.0
18.7515 194.0
18.8184 209.0
18.8852 229.0
18.9521 214.0
19.0189 210.0
19.0858 257.0
19.1526 207.0
19.2195 181.0
19.2863 208.0
19.3531 207.0
19.42 252.0
19.4868 219.0
19.5537 221.0
19.6205 210.0
19.6874 201.0
19.7542 193.0
19.8211 212.0
19.8879 226.0
19.9548 229.0
20.0216 214.0
20.0884 209.0
20.1553 226.0
20.2221 221.0
20.289 192.0
20.3558 208.0
20.4227 214.0
20.4895 236.0
20.5564 231.0
20.6232 244.0
20.69 215.0
20.7569 214.0
20.8237 217.0
20.8906 191.0
20.9574 198.0
21.0243 239.0
21.0911 219.0
21.158 195.0
21.2248 208.0
21.2917 207.0
21.3585 206.0
21.4253 192.0
21.4922 222.0
21.559 197.0
21.6259 233.0
21.6927 233.0
21.7596 184.0
21.8264 198.0
21.8933 247.0
21.9601 208.0
22.0269 209.0
22.0938 204.0
22.1606 190.0
22.2275 210.0
22.2943 230.0
22.3612 208.0
22.428 212.0
22.4949 231.0
22.5617 235.0
22.6286 208.0
22.6954 226.0
22.7622 220.0
22.8291 204.0
22.8959 241.0
22.9628 231.0
23.0296 230.0
23.0965 236.0
23.1633 270.0
23.2302 216.0
23.297 199.0
23.3639 224.0
23.4307 241.0
23.4975 222.0
23.5644 213.0
23.6312 221.0
23.6981 222.0
23.7649 257.0
23.8318 225.0
23.8986 228.0
23.9655 266.0
24.0323 231.0
24.0991 235.0
24.166 216.0
24.2328 248.0
24.2997 250.0
24.3665 244.0
24.4334 235.0
24.5002 235.0
24.5671 236.0
24.6339 254.0
24.7008 213.0
24.7676 225.0
24.8344 216.0
24.9013 243.0
24.9681 238.0
25.035 250.0
25.1018 271.0
25.1687 267.0
25.2355 236.0
25.3024 303.0
25.3692 257.0
25.436 298.0
25.5029 255.0
25.5697 297.0
25.6366 280.0
25.7034 294.0
25.7703 269.0
25.8371 273.0
25.904 288.0
25.9708 258.0
26.0377 242.0
26.1045 292.0
26.1713 285.0
26.2382 291.0
26.305 294.0
26.3719 274.0
26.4387 307.0
26.5056 272.0
26.5724 306.0
26.6393 300.0
26.7061 297.0
26.773 303.0
26.8398 285.0
26.9066 328.0
26.9735 334.0
27.0403 378.0
27.1072 341.0
27.174 321.0
27.2409 326.0
27.3077 352.0
27.3746 338.0
27.4414 348.0
27.5082 350.0
27.5751 379.0
27.6419 340.0
27.7088 380.0
27.7756 402.0
27.8425 357.0
27.9093 382.0
27.9762 407.0
28.043 397.0
28.1099 418.0
28.1767 376.0
28.2435 429.0
28.3104 435.0
28.3772 436.0
28.4441 462.0
28.5109 443.0
28.5778 461.0
28.6446 498.0
28.7115 456.0
28.7783 475.0
28.8451 503.0
28.912 533.0
28.9788 554.0
29.0457 571.0
29.1125 623.0
29.1794 619.0
29.2462 716.0
29.3131 667.0
29.3799 784.0
29.4468 748.0
29.5136 810.0
29.5804 857.0
29.6473 882.0
29.7141 930.0
29.781 1012.0
29.8478 1080.0
29.9147 1117.0
29.9815 1297.0
30.0484 1524.0
30.1152 1680.0
30.182 1950.0
30.2489 2372.0
30.3157 3246.0
30.3826 4241.0
30.4494 5700.0
30.5163 7536.0
30.5831 8568.0
30.65 8194.0
30.7168 6848.0
30.7837 5126.0
30.8505 3529.0
30.9173 2613.0
30.9842 1874.0
31.051 1600.0
31.1179 1372.0
31.1847 1253.0
31.2516 1063.0
31.3184 1024.0
31.3853 906.0
31.4521 917.0
31.519 785.0
31.5858 831.0
31.6526 817.0
31.7195 750.0
31.7863 689.0
31.8532 707.0
31.92 659.0
31.9869 616.0
32.0537 619.0
32.1206 594.0
32.1874 555.0
32.2542 600.0
32.3211 565.0
32.3879 589.0
32.4548 573.0
32.5216 578.0
32.5885 556.0
32.6553 541.0
32.7222 550.0
32.789 520.0
32.8559 564.0
32.9227 553.0
32.9895 517.0
33.0564 551.0
33.1232 524.0
33.1901 521.0
33.2569 516.0
33.3238 513.0
33.3906 550.0
33.4575 510.0
33.5243 517.0
33.5911 497.0
33.658 503.0
33.7248 540.0
33.7917 498.0
33.8585 494.0
33.9254 541.0
33.9922 506.0
34.0591 508.0
34.1259 535.0
34.1928 474.0
34.2596 545.0
34.3264 461.0
34.3933 496.0
34.4601 511.0
34.527 522.0
34.5938 500.0
34.6607 502.0
34.7275 551.0
34.7944 570.0
34.8612 594.0
34.928 611.0
34.9949 635.0
35.0617 740.0
35.1286 884.0
35.1954 1017.0
35.2623 1251.0
35.3291 1756.0
35.396 2136.0
35.4628 2272.0
35.5297 2133.0
35.5965 1705.0
35.6633 1177.0
35.7302 828.0
35.797 672.0
35.8639 501.0
35.9307 496.0
35.9976 429.0
36.0644 402.0
36.1313 368.0
36.1981 315.0
36.265 328.0
36.3318 308.0
36.3986 322.0
36.4655 274.0
36.5323 294.0
36.5992 289.0
36.666 286.0
36.7329 277.0
36.7997 223.0
36.8666 237.0
36.9334 258.0
37.0002 262.0
37.0671 208.0
37.1339 220.0
37.2008 209.0
37.2676 198.0
37.3345 196.0
37.4013 200.0
37.4682 214.0
37.535 208.0
37.6019 220.0
37.6687 198.0
37.7355 191.0
37.8024 174.0
37.8692 204.0
37.9361 189.0
38.0029 196.0
38.0698 204.0
38.1366 192.0
38.2035 189.0
38.2703 193.0
38.3371 206.0
38.404 160.0
38.4708 214.0
38.5377 178.0
38.6045 169.0
38.6714 177.0
38.7382 180.0
38.8051 176.0
38.8719 158.0
38.9388 203.0
39.0056 185.0
39.0724 169.0
39.1393 199.0
39.2061 198.0
39.273 193.0
39.3398 189.0
39.4067 190.0
39.4735 182.0
39.5404 161.0
39.6072 180.0
39.6741 203.0
39.7409 164.0
39.8077 189.0
39.8746 162.0
39.9414 179.0
40.0083 166.0
40.0751 213.0
40.142 165.0
40.2088 178.0
40.2757 160.0
40.3425 192.0
40.4093 158.0
40.4762 162.0
40.543 188.0
40.6099 193.0
40.6767 194.0
40.7436 197.0
40.8104 200.0
40.8773 166.0
40.9441 180.0
41.011 189.0
41.0778 198.0
41.1446 176.0
41.2115 172.0
41.2783 198.0
41.3452 189.0
41.412 172.0
41.4789 201.0
41.5457 189.0
41.6126 201.0
41.6794 185.0
41.7462 221.0
41.8131 212.0
41.8799 210.0
41.9468 185.0
42.0136 198.0
42.0805 183.0
42.1473 220.0
42.2142 189.0
42.281 194.0
42.3479 198.0
42.4147 232.0
42.4815 220.0
42.5484 199.0
42.6152 212.0
42.6821 191.0
42.7489 222.0
42.8158 220.0
42.8826 236.0
42.9495 217.0
43.0163 219.0
43.0831 215.0
43.15 226.0
43.2168 242.0
43.2837 231.0
43.3505 241.0
43.4174 268.0
43.4842 214.0
43.5511 230.0
43.6179 230.0
43.6848 238.0
43.7516 235.0
43.8184 237.0
43.8853 266.0
43.9521 252.0
44.019 231.0
44.0858 241.0
44.1527 239.0
44.2195 239.0
44.2864 228.0
44.3532 229.0
44.4201 241.0
44.4869 245.0
44.5537 225.0
44.6206 253.0
44.6874 236.0
44.7543 213.0
44.8211 220.0
44.888 260.0
44.9548 232.0
45.0217 243.0
45.0885 200.0
45.1553 248.0
45.2222 258.0
45.289 232.0
45.3559 260.0
45.4227 238.0
45.4896 253.0
45.5564 277.0
45.6233 240.0
45.6901 245.0
45.757 240.0
45.8238 251.0
45.8906 293.0
45.9575 239.0
46.0243 269.0
46.0912 273.0
46.158 259.0
46.2249 267.0
46.2917 260.0
46.3586 275.0
46.4254 248.0
46.4922 278.0
46.5591 252.0
46.6259 244.0
46.6928 256.0
46.7596 264.0
46.8265 269.0
46.8933 259.0
46.9602 308.0
47.027 250.0
47.0939 315.0
47.1607 292.0
47.2275 272.0
47.2944 292.0
47.3612 287.0
47.4281 272.0
47.4949 272.0
47.5618 302.0
47.6286 314.0
47.6955 280.0
47.7623 336.0
47.8291 306.0
47.896 323.0
47.9628 316.0
48.0297 300.0
48.0965 307.0
48.1634 304.0
48.2302 326.0
48.2971 331.0
48.3639 326.0
48.4308 309.0
48.4976 331.0
48.5644 338.0
48.6313 417.0
48.6981 354.0
48.765 392.0
48.8318 377.0
48.8987 384.0
48.9655 402.0
49.0324 403.0
49.0992 417.0
49.1661 429.0
49.2329 439.0
49.2997 461.0
49.3666 470.0
49.4334 448.0
49.5003 497.0
49.5671 531.0
49.634 559.0
49.7008 526.0
49.7677 641.0
49.8345 559.0
49.9013 647.0
49.9682 639.0
50.035 703.0
50.1019 729.0
50.1687 824.0
50.2356 853.0
50.3024 897.0
50.3693 1024.0
50.4361 1110.0
50.503 1325.0
50.5698 1614.0
50.6366 1894.0
50.7035 2227.0
50.7703 2731.0
50.8372 3269.0
50.904 3727.0
50.9709 3926.0
51.0377 3799.0
51.1046 3183.0
51.1714 2750.0
51.2382 2306.0
51.3051 1758.0
51.3719 1493.0
51.4388 1161.0
51.5056 987.0
51.5725 865.0
51.6393 826.0
51.7062 670.0
51.773 641.0
51.8399 545.0
51.9067 544.0
51.9735 509.0
52.0404 509.0
52.1072 429.0
52.1741 447.0
52.2409 400.0
52.3078 407.0
52.3746 380.0
52.4415 383.0
52.5083 363.0
52.5751 328.0
52.642 370.0
52.7088 353.0
52.7757 362.0
52.8425 306.0
52.9094 324.0
52.9762 360.0
53.0431 319.0
53.1099 307.0
53.1768 357.0
53.2436 308.0
53.3104 331.0
53.3773 356.0
53.4441 338.0
53.511 307.0
53.5778 328.0
53.6447 318.0
53.7115 295.0
53.7784 316.0
53.8452 340.0
53.9121 277.0
53.9789 276.0
54.0457 308.0
54.1126 299.0
54.1794 299.0
54.2463 302.0
54.3131 308.0
54.38 288.0
54.4468 316.0
54.5137 282.0
54.5805 279.0
54.6473 311.0
54.7142 332.0
54.781 298.0
54.8479 334.0
54.9147 303.0
54.9816 306.0
55.0484 294.0
55.1153 319.0
55.1821 304.0
55.249 310.0
55.3158 310.0
55.3826 308.0
55.4495 283.0
55.5163 291.0
55.5832 308.0
55.65 285.0
55.7169 308.0
55.7837 309.0
55.8506 300.0
55.9174 310.0
55.9842 300.0
56.0511 317.0
56.1179 310.0
56.1848 294.0
56.2516 293.0
56.3185 336.0
56.3853 289.0
56.4522 319.0
56.519 287.0
56.5859 299.0
56.6527 337.0
56.7195 317.0
56.7864 347.0
56.8532 317.0
56.9201 299.0
56.9869 316.0
57.0538 354.0
57.1206 319.0
57.1875 325.0
57.2543 354.0
57.3212 339.0
57.388 353.0
57.4548 346.0
57.5217 323.0
57.5885 336.0
57.6554 318.0
57.7222 363.0
57.7891 361.0
57.8559 355.0
57.9228 309.0
57.9896 360.0
58.0564 397.0
58.1233 379.0
58.1901 407.0
58.257 367.0
58.3238 385.0
58.3907 372.0
58.4575 356.0
58.5244 381.0
58.5912 408.0
58.6581 384.0
58.7249 381.0
58.7917 428.0
58.8586 455.0
58.9254 442.0
58.9923 447.0
59.0591 426.0
59.126 470.0
59.1928 498.0
59.2597 500.0
59.3265 540.0
59.3933 495.0
59.4602 548.0
59.527 557.0
59.5939 578.0
59.6607 632.0
59.7276 700.0
59.7944 679.0
59.8613 726.0
59.9281 848.0
59.995 934.0
60.0618 1012.0
60.1286 1086.0
60.1955 1309.0
60.2623 1541.0
60.3292 1774.0
60.396 2075.0
60.4629 2386.0
60.5297 2633.0
60.5966 2698.0
60.6634 2497.0
60.7302 2249.0
60.7971 1911.0
60.8639 1601.0
60.9308 1352.0
60.9976 1115.0
61.0645 897.0
61.1313 828.0
61.1982 675.0
61.265 679.0
61.3319 576.0
61.3987 553.0
61.4655 538.0
61.5324 513.0
61.5992 480.0
61.6661 426.0
61.7329 427.0
61.7998 397.0
61.8666 387.0
61.9335 395.0
62.0003 342.0
62.0672 387.0
62.134 328.0
62.2008 337.0
62.2677 371.0
62.3345 355.0
62.4014 357.0
62.4682 380.0
62.5351 349.0
62.6019 361.0
62.6688 347.0
62.7356 347.0
62.8024 350.0
62.8693 333.0
62.9361 367.0
63.003 391.0
63.0698 382.0
63.1367 414.0
63.2035 476.0
63.2704 458.0
63.3372 542.0
63.4041 563.0
63.4709 564.0
63.5377 599.0
63.6046 615.0
63.6714 578.0
63.7383 609.0
63.8051 554.0
63.872 478.0
63.9388 459.0
64.0057 351.0
64.0725 399.0
64.1393 355.0
64.2062 294.0
64.273 308.0
64.3399 300.0
64.4067 324.0
64.4736 294.0
64.5404 288.0
64.6073 266.0
64.6741 239.0
64.741 259.0
64.8078 261.0
64.8746 223.0
64.9415 251.0
65.0083 242.0
65.0752 246.0
65.142 241.0
65.2089 242.0
65.2757 278.0
65.3426 252.0
65.4094 217.0
65.4762 209.0
65.5431 225.0
65.6099 256.0
65.6768 219.0
65.7436 204.0
65.8105 214.0
65.8773 205.0
65.9442 246.0
66.011 209.0
66.0779 229.0
66.1447 228.0
66.2115 190.0
66.2784 203.0
66.3452 205.0
66.4121 206.0
66.4789 209.0
66.5458 197.0
66.6126 206.0
66.6795 213.0
66.7463 212.0
66.8132 214.0
66.88 207.0
66.9468 225.0
67.0137 190.0
67.0805 210.0
67.1474 189.0
67.2142 190.0
67.2811 170.0
67.3479 200.0
67.4148 200.0
67.4816 178.0
67.5484 189.0
67.6153 180.0
67.6821 167.0
67.749 201.0
67.8158 212.0
67.8827 178.0
67.9495 177.0
68.0164 182.0
68.0832 196.0
68.1501 165.0
68.2169 178.0
68.2837 190.0
68.3506 162.0
68.4174 188.0
68.4843 208.0
68.5511 178.0
68.618 190.0
68.6848 169.0
68.7517 177.0
68.8185 167.0
68.8853 173.0
68.9522 183.0
69.019 160.0
69.0859 170.0
69.1527 180.0
69.2196 181.0
69.2864 183.0
69.3533 182.0
69.4201 175.0
69.487 150.0
69.5538 148.0
69.6206 170.0
69.6875 169.0
69.7543 155.0
69.8212 163.0
69.888 201.0
69.9549 159.0
70.0217 153.0
70.0886 169.0
70.1554 164.0
70.2222 149.0
70.2891 141.0
70.3559 169.0
70.4228 154.0
70.4896 157.0
70.5565 162.0
70.6233 145.0
70.6902 168.0
70.757 175.0
70.8239 151.0
70.8907 154.0
70.9575 173.0
71.0244 158.0
71.0912 137.0
71.1581 175.0
71.2249 148.0
71.2918 145.0
71.3586 142.0
71.4255 141.0
71.4923 141.0
71.5592 144.0
71.626 179.0
71.6928 153.0
71.7597 141.0
71.8265 154.0
71.8934 184.0
71.9602 188.0
72.0271 146.0
72.0939 160.0
72.1608 147.0
72.2276 164.0
72.2944 162.0
72.3613 174.0
72.4281 188.0
72.495 174.0
72.5618 151.0
72.6287 150.0
72.6955 176.0
72.7624 162.0
72.8292 183.0
72.8961 151.0
72.9629 144.0
73.0297 170.0
73.0966 185.0
73.1634 178.0
73.2303 178.0
73.2971 176.0
73.364 203.0
73.4308 184.0
73.4977 199.0
73.5645 192.0
73.6313 185.0
73.6982 186.0
73.765 199.0
73.8319 199.0
73.8987 198.0
73.9656 212.0
74.0324 217.0
74.0993 201.0
74.1661 242.0
74.233 270.0
74.2998 236.0
74.3666 232.0
74.4335 277.0
74.5003 325.0
74.5672 325.0
74.634 383.0
74.7009 407.0
74.7677 489.0
74.8346 489.0
74.9014 470.0
74.9683 493.0
75.0351 462.0
75.1019 474.0
75.1688 404.0
75.2356 367.0
75.3025 344.0
75.3693 245.0
75.4362 214.0
75.503 227.0
75.5699 203.0
75.6367 208.0
75.7035 169.0
75.7704 174.0
75.8372 181.0
75.9041 162.0
75.9709 166.0
76.0378 162.0
76.1046 193.0
76.1715 164.0
76.2383 170.0
76.3052 155.0
76.372 176.0
76.4388 160.0
76.5057 199.0
76.5725 150.0
76.6394 138.0
76.7062 154.0
76.7731 160.0
76.8399 148.0
76.9068 158.0
76.9736 155.0
77.0404 147.0
77.1073 161.0
77.1741 151.0
77.241 152.0
77.3078 174.0
77.3747 166.0
77.4415 151.0
77.5084 145.0
77.5752 149.0
77.6421 158.0
77.7089 162.0
77.7757 180.0
77.8426 152.0
77.9094 157.0
77.9763 150.0
78.0431 164.0
78.11 148.0
78.1768 174.0
78.2437 158.0
78.3105 168.0
78.3773 175.0
78.4442 163.0
78.511 143.0
78.5779 175.0
78.6447 166.0
78.7116 164.0
78.7784 160.0
78.8453 193.0
78.9121 154.0
78.979 150.0
79.0458 175.0
79.1126 152.0
79.1795 166.0
79.2463 154.0
79.3132 166.0
79.38 196.0
79.4469 162.0
79.5137 149.0
79.5806 146.0
79.6474 175.0
79.7143 167.0
79.7811 154.0
79.8479 153.0
79.9148 195.0
79.9816 165.0
80.0485 188.0
80.1153 155.0
80.1822 170.0
80.249 197.0
80.3159 177.0
80.3827 174.0
80.4495 179.0
80.5164 179.0
80.5832 216.0
80.6501 214.0
80.7169 195.0
80.7838 192.0
80.8506 215.0
80.9175 200.0
80.9843 230.0
81.0512 193.0
81.118 210.0
81.1848 216.0
81.2517 229.0
81.3185 241.0
81.3854 253.0
81.4522 221.0
81.5191 240.0
81.5859 256.0
81.6528 274.0
81.7196 282.0
81.7864 266.0
81.8533 330.0
81.9201 302.0
81.987 291.0
82.0538 329.0
82.1207 307.0
82.1875 358.0
82.2544 391.0
82.3212 425.0
82.3881 402.0
82.4549 450.0
82.5217 485.0
82.5886 501.0
82.6554 581.0
82.7223 622.0
82.7891 634.0
82.856 722.0
82.9228 677.0
82.9897 654.0
83.0565 708.0
83.1233 711.0
83.1902 606.0
83.257 592.0
83.3239 518.0
83.3907 513.0
83.4576 495.0
83.5244 434.0
83.5913 415.0
83.6581 366.0
83.725 382.0
83.7918 361.0
83.8586 322.0
83.9255 305.0
83.9923 323.0
84.0592 283.0
84.126 274.0
84.1929 285.0
84.2597 272.0
84.3266 277.0
84.3934 273.0
84.4603 259.0
84.5271 309.0
84.5939 297.0
84.6608 300.0
84.7276 274.0
84.7945 320.0
84.8613 297.0
84.9282 369.0
84.995 365.0
85.0619 377.0
85.1287 387.0
85.1955 357.0
85.2624 433.0
85.3292 450.0
85.3961 458.0
85.4629 493.0
85.5298 471.0
85.5966 536.0
85.6635 503.0
85.7303 541.0
85.7972 479.0
85.864 458.0
85.9308 428.0
85.9977 370.0
86.0645 375.0
86.1314 394.0
86.1982 339.0
86.2651 310.0
86.3319 261.0
86.3988 260.0
86.4656 251.0
86.5324 227.0
86.5993 205.0
86.6661 221.0
86.733 203.0
86.7998 188.0
86.8667 213.0
86.9335 188.0
87.0004 201.0
87.0672 210.0
87.1341 185.0
87.2009 214.0
87.2677 210.0
87.3346 180.0
87.4014 212.0
87.4683 164.0
87.5351 170.0
87.602 197.0
87.6688 176.0
87.7357 170.0
87.8025 194.0
87.8693 154.0
87.9362 193.0
88.003 165.0
88.0699 179.0
88.1367 193.0
88.2036 193.0
88.2704 178.0
88.3373 173.0
88.4041 203.0
88.471 190.0
88.5378 173.0
88.6046 180.0
88.6715 195.0
88.7383 177.0
88.8052 168.0
88.872 193.0
88.9389 185.0
89.0057 166.0
89.0726 167.0
89.1394 185.0
89.2063 177.0
89.2731 190.0
89.3399 183.0
89.4068 177.0
89.4736 183.0
89.5405 173.0
89.6073 158.0
89.6742 176.0
89.741 188.0
89.8079 198.0
89.8747 194.0
89.9415 185.0