File: code/XRD_Analysis/External Sources/Fabian/20240402_RUB-50_notcalc_morematerial.xy
4.98146 1276.0
5.0483 1224.0
5.11515 1214.0
5.18199 1300.0
5.24884 1235.0
5.31568 1206.0
5.38253 1241.0
5.44937 1193.0
5.51622 1156.0
5.58306 1220.0
5.64991 1179.0
5.71675 1198.0
5.7836 1203.0
5.85044 1164.0
5.91729 1172.0
5.98413 1235.0
6.05098 1274.0
6.11782 1319.0
6.18467 1345.0
6.25151 1506.0
6.31836 1515.0
6.3852 1682.0
6.45205 1823.0
6.51889 1978.0
6.58574 2112.0
6.65258 2329.0
6.71943 2439.0
6.78627 2382.0
6.85312 2304.0
6.91996 2088.0
6.98681 2007.0
7.05365 2090.0
7.1205 2430.0
7.18734 2972.0
7.25419 3358.0
7.32103 2856.0
7.38788 1948.0
7.45472 1438.0
7.52157 1110.0
7.58841 1049.0
7.65526 1027.0
7.7221 1073.0
7.78895 1230.0
7.85579 1326.0
7.92264 1476.0
7.98948 1640.0
8.05633 1738.0
8.12317 1789.0
8.19002 1911.0
8.25686 1796.0
8.32371 1886.0
8.39055 1898.0
8.4574 2001.0
8.52424 1922.0
8.59109 1925.0
8.65793 1878.0
8.72478 1798.0
8.79162 1771.0
8.85847 1753.0
8.92532 1772.0
8.99216 1786.0
9.05901 1739.0
9.12585 1716.0
9.1927 1769.0
9.25954 1675.0
9.32639 1627.0
9.39323 1622.0
9.46008 1603.0
9.52692 1526.0
9.59377 1510.0
9.66061 1451.0
9.72746 1369.0
9.7943 1288.0
9.86115 1277.0
9.92799 1182.0
9.99484 1179.0
10.0617 1088.0
10.1285 1018.0
10.1954 1001.0
10.2622 908.0
10.3291 854.0
10.3959 783.0
10.4628 812.0
10.5296 751.0
10.5964 714.0
10.6633 686.0
10.7301 685.0
10.797 632.0
10.8638 607.0
10.9307 615.0
10.9975 572.0
11.0644 616.0
11.1312 574.0
11.198 505.0
11.2649 498.0
11.3317 492.0
11.3986 542.0
11.4654 529.0
11.5323 470.0
11.5991 477.0
11.666 509.0
11.7328 528.0
11.7997 512.0
11.8665 491.0
11.9333 501.0
12.0002 511.0
12.067 485.0
12.1339 532.0
12.2007 525.0
12.2676 480.0
12.3344 503.0
12.4013 526.0
12.4681 566.0
12.5349 623.0
12.6018 616.0
12.6686 681.0
12.7355 662.0
12.8023 712.0
12.8692 732.0
12.936 744.0
13.0029 764.0
13.0697 767.0
13.1366 743.0
13.2034 764.0
13.2702 750.0
13.3371 886.0
13.4039 836.0
13.4708 866.0
13.5376 862.0
13.6045 847.0
13.6713 822.0
13.7382 772.0
13.805 722.0
13.8719 698.0
13.9387 741.0
14.0055 629.0
14.0724 629.0
14.1392 630.0
14.2061 663.0
14.2729 690.0
14.3398 814.0
14.4066 840.0
14.4735 907.0
14.5403 846.0
14.6071 841.0
14.674 847.0
14.7408 812.0
14.8077 848.0
14.8745 746.0
14.9414 727.0
15.0082 717.0
15.0751 728.0
15.1419 730.0
15.2088 669.0
15.2756 741.0
15.3424 662.0
15.4093 746.0
15.4761 710.0
15.543 741.0
15.6098 808.0
15.6767 731.0
15.7435 729.0
15.8104 757.0
15.8772 726.0
15.944 766.0
16.0109 787.0
16.0777 719.0
16.1446 735.0
16.2114 750.0
16.2783 734.0
16.3451 770.0
16.412 734.0
16.4788 682.0
16.5457 709.0
16.6125 670.0
16.6793 719.0
16.7462 634.0
16.813 664.0
16.8799 606.0
16.9467 590.0
17.0136 545.0
17.0804 535.0
17.1473 569.0
17.2141 531.0
17.2809 541.0
17.3478 506.0
17.4146 528.0
17.4815 486.0
17.5483 528.0
17.6152 553.0
17.682 525.0
17.7489 566.0
17.8157 598.0
17.8826 540.0
17.9494 596.0
18.0162 616.0
18.0831 650.0
18.1499 618.0
18.2168 643.0
18.2836 697.0
18.3505 755.0
18.4173 773.0
18.4842 789.0
18.551 841.0
18.6179 888.0
18.6847 926.0
18.7515 947.0
18.8184 960.0
18.8852 1089.0
18.9521 1182.0
19.0189 1287.0
19.0858 1323.0
19.1526 1398.0
19.2195 1438.0
19.2863 1496.0
19.3531 1553.0
19.42 1650.0
19.4868 1749.0
19.5537 1928.0
19.6205 2007.0
19.6874 2180.0
19.7542 2269.0
19.8211 2370.0
19.8879 2505.0
19.9548 2527.0
20.0216 2486.0
20.0884 2690.0
20.1553 2635.0
20.2221 2518.0
20.289 2499.0
20.3558 2313.0
20.4227 2192.0
20.4895 2083.0
20.5564 1851.0
20.6232 1778.0
20.69 1621.0
20.7569 1560.0
20.8237 1515.0
20.8906 1430.0
20.9574 1341.0
21.0243 1323.0
21.0911 1376.0
21.158 1333.0
21.2248 1325.0
21.2917 1360.0
21.3585 1376.0
21.4253 1475.0
21.4922 1544.0
21.559 1714.0
21.6259 1847.0
21.6927 1856.0
21.7596 1859.0
21.8264 1941.0
21.8933 2211.0
21.9601 2460.0
22.0269 2828.0
22.0938 3037.0
22.1606 3166.0
22.2275 3250.0
22.2943 3266.0
22.3612 3511.0
22.428 3389.0
22.4949 3254.0
22.5617 3332.0
22.6286 3177.0
22.6954 2914.0
22.7622 2969.0
22.8291 2838.0
22.8959 2598.0
22.9628 2612.0
23.0296 2598.0
23.0965 2470.0
23.1633 2464.0
23.2302 2316.0
23.297 2381.0
23.3639 2163.0
23.4307 2093.0
23.4975 1993.0
23.5644 2075.0
23.6312 1883.0
23.6981 1846.0
23.7649 1827.0
23.8318 1683.0
23.8986 1769.0
23.9655 1637.0
24.0323 1580.0
24.0991 1610.0
24.166 1497.0
24.2328 1367.0
24.2997 1453.0
24.3665 1315.0
24.4334 1265.0
24.5002 1316.0
24.5671 1285.0
24.6339 1282.0
24.7008 1386.0
24.7676 1502.0
24.8344 1728.0
24.9013 1977.0
24.9681 2253.0
25.035 2412.0
25.1018 2440.0
25.1687 2190.0
25.2355 1963.0
25.3024 1664.0
25.3692 1634.0
25.436 1509.0
25.5029 1563.0
25.5697 1584.0
25.6366 1671.0
25.7034 1970.0
25.7703 2462.0
25.8371 3035.0
25.904 3897.0
25.9708 4802.0
26.0377 5274.0
26.1045 4961.0
26.1713 4194.0
26.2382 3149.0
26.305 2766.0
26.3719 2540.0
26.4387 2671.0
26.5056 2657.0
26.5724 2736.0
26.6393 2756.0
26.7061 2697.0
26.773 2768.0
26.8398 2460.0
26.9066 2353.0
26.9735 2158.0
27.0403 2071.0
27.1072 1887.0
27.174 1768.0
27.2409 1703.0
27.3077 1581.0
27.3746 1503.0
27.4414 1502.0
27.5082 1426.0
27.5751 1357.0
27.6419 1334.0
27.7088 1283.0
27.7756 1285.0
27.8425 1235.0
27.9093 1175.0
27.9762 1164.0
28.043 1160.0
28.1099 1189.0
28.1767 1158.0
28.2435 1168.0
28.3104 1041.0
28.3772 1007.0
28.4441 1041.0
28.5109 1070.0
28.5778 1032.0
28.6446 1033.0
28.7115 1019.0
28.7783 1054.0
28.8451 1017.0
28.912 1068.0
28.9788 1058.0
29.0457 1045.0
29.1125 1070.0
29.1794 1095.0
29.2462 1076.0
29.3131 1120.0
29.3799 954.0
29.4468 997.0
29.5136 959.0
29.5804 838.0
29.6473 849.0
29.7141 884.0
29.781 813.0
29.8478 820.0
29.9147 722.0
29.9815 783.0
30.0484 756.0
30.1152 751.0
30.182 753.0
30.2489 817.0
30.3157 785.0
30.3826 714.0
30.4494 679.0
30.5163 689.0
30.5831 674.0
30.65 674.0
30.7168 575.0
30.7837 571.0
30.8505 578.0
30.9173 544.0
30.9842 565.0
31.051 551.0
31.1179 574.0
31.1847 554.0
31.2516 557.0
31.3184 635.0
31.3853 706.0
31.4521 760.0
31.519 776.0
31.5858 876.0
31.6526 888.0
31.7195 829.0
31.7863 781.0
31.8532 719.0
31.92 675.0
31.9869 735.0
32.0537 622.0
32.1206 634.0
32.1874 712.0
32.2542 725.0
32.3211 657.0
32.3879 653.0
32.4548 695.0
32.5216 691.0
32.5885 773.0
32.6553 728.0
32.7222 808.0
32.789 798.0
32.8559 792.0
32.9227 813.0
32.9895 869.0
33.0564 907.0
33.1232 876.0
33.1901 909.0
33.2569 960.0
33.3238 909.0
33.3906 926.0
33.4575 867.0
33.5243 907.0
33.5911 883.0
33.658 855.0
33.7248 933.0
33.7917 842.0
33.8585 800.0
33.9254 763.0
33.9922 809.0
34.0591 737.0
34.1259 790.0
34.1928 717.0
34.2596 706.0
34.3264 701.0
34.3933 734.0
34.4601 693.0
34.527 641.0
34.5938 623.0
34.6607 651.0
34.7275 613.0
34.7944 648.0
34.8612 600.0
34.928 606.0
34.9949 595.0
35.0617 568.0
35.1286 521.0
35.1954 571.0
35.2623 570.0
35.3291 533.0
35.396 511.0
35.4628 506.0
35.5297 503.0
35.5965 491.0
35.6633 446.0
35.7302 485.0
35.797 510.0
35.8639 466.0
35.9307 459.0
35.9976 471.0
36.0644 497.0
36.1313 513.0
36.1981 506.0
36.265 591.0
36.3318 676.0
36.3986 657.0
36.4655 548.0
36.5323 586.0
36.5992 574.0
36.666 510.0
36.7329 539.0
36.7997 473.0
36.8666 511.0
36.9334 506.0
37.0002 527.0
37.0671 491.0
37.1339 549.0
37.2008 558.0
37.2676 544.0
37.3345 557.0
37.4013 555.0
37.4682 578.0
37.535 595.0
37.6019 586.0
37.6687 677.0
37.7355 663.0
37.8024 770.0
37.8692 743.0
37.9361 736.0
38.0029 665.0
38.0698 573.0
38.1366 489.0
38.2035 494.0
38.2703 424.0
38.3371 413.0
38.404 424.0
38.4708 412.0
38.5377 434.0
38.6045 406.0
38.6714 471.0
38.7382 400.0
38.8051 398.0
38.8719 398.0
38.9388 422.0
39.0056 429.0
39.0724 393.0
39.1393 396.0
39.2061 424.0
39.273 444.0
39.3398 429.0
39.4067 438.0
39.4735 435.0
39.5404 399.0
39.6072 393.0
39.6741 411.0
39.7409 428.0
39.8077 463.0
39.8746 388.0
39.9414 425.0
40.0083 460.0
40.0751 442.0
40.142 424.0
40.2088 403.0
40.2757 415.0
40.3425 424.0
40.4093 465.0
40.4762 424.0
40.543 486.0
40.6099 423.0
40.6767 487.0
40.7436 453.0
40.8104 448.0
40.8773 447.0
40.9441 433.0
41.011 438.0
41.0778 427.0
41.1446 413.0
41.2115 446.0
41.2783 424.0
41.3452 388.0
41.412 409.0
41.4789 413.0
41.5457 412.0
41.6126 400.0
41.6794 412.0
41.7462 427.0
41.8131 381.0
41.8799 407.0
41.9468 394.0
42.0136 383.0
42.0805 397.0
42.1473 358.0
42.2142 389.0
42.281 406.0
42.3479 392.0
42.4147 399.0
42.4815 423.0
42.5484 432.0
42.6152 432.0
42.6821 408.0
42.7489 430.0
42.8158 454.0
42.8826 438.0
42.9495 444.0
43.0163 455.0
43.0831 461.0
43.15 435.0
43.2168 463.0
43.2837 472.0
43.3505 406.0
43.4174 441.0
43.4842 457.0
43.5511 396.0
43.6179 441.0
43.6848 454.0
43.7516 424.0
43.8184 458.0
43.8853 406.0
43.9521 469.0
44.019 400.0
44.0858 429.0
44.1527 433.0
44.2195 449.0
44.2864 447.0
44.3532 453.0
44.4201 474.0
44.4869 470.0
44.5537 552.0
44.6206 539.0
44.6874 559.0
44.7543 544.0
44.8211 508.0
44.888 503.0
44.9548 503.0
45.0217 527.0
45.0885 475.0
45.1553 476.0
45.2222 490.0
45.289 467.0
45.3559 463.0
45.4227 425.0
45.4896 440.0
45.5564 438.0
45.6233 505.0
45.6901 476.0
45.757 470.0
45.8238 510.0
45.8906 569.0
45.9575 613.0
46.0243 616.0
46.0912 659.0
46.158 665.0
46.2249 667.0
46.2917 664.0
46.3586 590.0
46.4254 615.0
46.4922 575.0
46.5591 582.0
46.6259 522.0
46.6928 498.0
46.7596 478.0
46.8265 456.0
46.8933 402.0
46.9602 401.0
47.027 364.0
47.0939 402.0
47.1607 388.0
47.2275 371.0
47.2944 415.0
47.3612 391.0
47.4281 385.0
47.4949 401.0
47.5618 353.0
47.6286 406.0
47.6955 414.0
47.7623 403.0
47.8291 425.0
47.896 465.0
47.9628 479.0
48.0297 500.0
48.0965 474.0
48.1634 507.0
48.2302 553.0
48.2971 545.0
48.3639 558.0
48.4308 579.0
48.4976 563.0
48.5644 518.0
48.6313 589.0
48.6981 616.0
48.765 566.0
48.8318 604.0
48.8987 559.0
48.9655 510.0
49.0324 551.0
49.0992 482.0
49.1661 496.0
49.2329 444.0
49.2997 504.0
49.3666 487.0
49.4334 419.0
49.5003 441.0
49.5671 407.0
49.634 408.0
49.7008 428.0
49.7677 429.0
49.8345 398.0
49.9013 382.0
49.9682 411.0
50.035 372.0
50.1019 377.0
50.1687 432.0
50.2356 400.0
50.3024 401.0
50.3693 373.0
50.4361 391.0
50.503 410.0
50.5698 418.0
50.6366 402.0
50.7035 382.0
50.7703 444.0
50.8372 404.0
50.904 441.0
50.9709 428.0
51.0377 441.0
51.1046 447.0
51.1714 424.0
51.2382 488.0
51.3051 467.0
51.3719 550.0
51.4388 492.0
51.5056 490.0
51.5725 526.0
51.6393 539.0
51.7062 557.0
51.773 540.0
51.8399 591.0
51.9067 568.0
51.9735 580.0
52.0404 533.0
52.1072 559.0
52.1741 553.0
52.2409 541.0
52.3078 527.0
52.3746 512.0
52.4415 495.0
52.5083 456.0
52.5751 469.0
52.642 463.0
52.7088 427.0
52.7757 423.0
52.8425 431.0
52.9094 372.0
52.9762 407.0
53.0431 389.0
53.1099 370.0
53.1768 411.0
53.2436 361.0
53.3104 416.0
53.3773 368.0
53.4441 360.0
53.511 387.0
53.5778 404.0
53.6447 427.0
53.7115 348.0
53.7784 368.0
53.8452 347.0
53.9121 385.0
53.9789 336.0
54.0457 350.0
54.1126 361.0
54.1794 326.0
54.2463 351.0
54.3131 300.0
54.38 360.0
54.4468 326.0
54.5137 344.0
54.5805 295.0
54.6473 298.0
54.7142 303.0
54.781 282.0
54.8479 319.0
54.9147 277.0
54.9816 294.0
55.0484 282.0
55.1153 285.0
55.1821 277.0
55.249 277.0
55.3158 285.0
55.3826 293.0
55.4495 307.0
55.5163 300.0
55.5832 307.0
55.65 301.0
55.7169 284.0
55.7837 331.0
55.8506 321.0
55.9174 357.0
55.9842 358.0
56.0511 379.0
56.1179 372.0
56.1848 388.0
56.2516 404.0
56.3185 403.0
56.3853 345.0
56.4522 361.0
56.519 349.0
56.5859 331.0
56.6527 365.0
56.7195 361.0
56.7864 329.0
56.8532 344.0
56.9201 367.0
56.9869 313.0
57.0538 350.0
57.1206 333.0
57.1875 298.0
57.2543 369.0
57.3212 336.0
57.388 294.0
57.4548 360.0
57.5217 344.0
57.5885 324.0
57.6554 362.0
57.7222 339.0
57.7891 315.0
57.8559 335.0
57.9228 350.0
57.9896 330.0
58.0564 292.0
58.1233 321.0
58.1901 320.0
58.257 342.0
58.3238 316.0
58.3907 345.0
58.4575 346.0
58.5244 330.0
58.5912 320.0
58.6581 341.0
58.7249 331.0
58.7917 342.0
58.8586 334.0
58.9254 322.0
58.9923 315.0
59.0591 336.0
59.126 329.0
59.1928 352.0
59.2597 336.0
59.3265 385.0
59.3933 334.0
59.4602 355.0
59.527 333.0
59.5939 352.0
59.6607 353.0
59.7276 376.0
59.7944 399.0
59.8613 355.0
59.9281 386.0
59.995 379.0
60.0618 371.0
60.1286 355.0
60.1955 357.0
60.2623 344.0
60.3292 352.0
60.396 317.0
60.4629 357.0
60.5297 319.0
60.5966 325.0
60.6634 337.0
60.7302 326.0
60.7971 347.0
60.8639 351.0
60.9308 333.0
60.9976 331.0
61.0645 378.0
61.1313 401.0
61.1982 379.0
61.265 391.0
61.3319 357.0
61.3987 385.0
61.4655 369.0
61.5324 411.0
61.5992 334.0
61.6661 364.0
61.7329 333.0
61.7998 346.0
61.8666 324.0
61.9335 358.0
62.0003 362.0
62.0672 379.0
62.134 340.0
62.2008 315.0
62.2677 317.0
62.3345 350.0
62.4014 337.0
62.4682 330.0
62.5351 321.0
62.6019 331.0
62.6688 346.0
62.7356 352.0
62.8024 324.0
62.8693 357.0
62.9361 347.0
63.003 319.0
63.0698 353.0
63.1367 299.0
63.2035 355.0
63.2704 379.0
63.3372 316.0
63.4041 317.0
63.4709 380.0
63.5377 333.0
63.6046 311.0
63.6714 396.0
63.7383 372.0
63.8051 340.0
63.872 373.0
63.9388 391.0
64.0057 362.0
64.0725 376.0
64.1393 378.0
64.2062 334.0
64.273 368.0
64.3399 397.0
64.4067 412.0
64.4736 459.0
64.5404 423.0
64.6073 434.0
64.6741 441.0
64.741 442.0
64.8078 420.0
64.8746 453.0
64.9415 442.0
65.0083 503.0
65.0752 500.0
65.142 481.0
65.2089 540.0
65.2757 524.0
65.3426 589.0
65.4094 539.0
65.4762 568.0
65.5431 522.0
65.6099 568.0
65.6768 509.0
65.7436 519.0
65.8105 500.0
65.8773 520.0
65.9442 475.0
66.011 466.0
66.0779 473.0
66.1447 462.0
66.2115 444.0
66.2784 453.0
66.3452 448.0
66.4121 384.0
66.4789 429.0
66.5458 375.0
66.6126 354.0
66.6795 354.0
66.7463 378.0
66.8132 409.0
66.88 378.0
66.9468 360.0
67.0137 303.0
67.0805 318.0
67.1474 340.0
67.2142 325.0
67.2811 334.0
67.3479 340.0
67.4148 302.0
67.4816 362.0
67.5484 317.0
67.6153 331.0
67.6821 330.0
67.749 304.0
67.8158 324.0
67.8827 295.0
67.9495 330.0
68.0164 297.0
68.0832 299.0
68.1501 311.0
68.2169 294.0
68.2837 275.0
68.3506 287.0
68.4174 303.0
68.4843 305.0
68.5511 273.0
68.618 280.0
68.6848 308.0
68.7517 298.0
68.8185 268.0
68.8853 278.0
68.9522 290.0
69.019 292.0
69.0859 289.0
69.1527 342.0
69.2196 303.0
69.2864 309.0
69.3533 301.0
69.4201 264.0
69.487 318.0
69.5538 319.0
69.6206 340.0
69.6875 307.0
69.7543 324.0
69.8212 309.0
69.888 321.0
69.9549 337.0
70.0217 350.0
70.0886 318.0
70.1554 295.0
70.2222 320.0
70.2891 320.0
70.3559 315.0
70.4228 303.0
70.4896 324.0
70.5565 261.0
70.6233 292.0
70.6902 319.0
70.757 318.0
70.8239 299.0
70.8907 298.0
70.9575 293.0
71.0244 288.0
71.0912 287.0
71.1581 289.0
71.2249 316.0
71.2918 291.0
71.3586 269.0
71.4255 274.0
71.4923 306.0
71.5592 291.0
71.626 240.0
71.6928 300.0
71.7597 262.0
71.8265 288.0
71.8934 299.0
71.9602 269.0
72.0271 283.0
72.0939 266.0
72.1608 318.0
72.2276 278.0
72.2944 280.0
72.3613 326.0
72.4281 303.0
72.495 320.0
72.5618 331.0
72.6287 321.0
72.6955 368.0
72.7624 336.0
72.8292 336.0
72.8961 347.0
72.9629 347.0
73.0297 387.0
73.0966 340.0
73.1634 351.0
73.2303 352.0
73.2971 344.0
73.364 387.0
73.4308 351.0
73.4977 339.0
73.5645 320.0
73.6313 333.0
73.6982 346.0
73.765 329.0
73.8319 307.0
73.8987 325.0
73.9656 297.0
74.0324 286.0
74.0993 318.0
74.1661 320.0
74.233 328.0
74.2998 311.0
74.3666 283.0
74.4335 295.0
74.5003 295.0
74.5672 324.0
74.634 301.0
74.7009 295.0
74.7677 299.0
74.8346 300.0
74.9014 298.0
74.9683 266.0
75.0351 280.0
75.1019 318.0
75.1688 261.0
75.2356 314.0
75.3025 318.0
75.3693 310.0
75.4362 299.0
75.503 275.0
75.5699 285.0
75.6367 321.0
75.7035 282.0
75.7704 294.0
75.8372 262.0
75.9041 275.0
75.9709 286.0
76.0378 293.0
76.1046 297.0
76.1715 315.0
76.2383 315.0
76.3052 326.0
76.372 303.0
76.4388 332.0
76.5057 311.0
76.5725 270.0
76.6394 297.0
76.7062 277.0
76.7731 315.0
76.8399 325.0
76.9068 285.0
76.9736 315.0
77.0404 313.0
77.1073 330.0
77.1741 315.0
77.241 278.0
77.3078 361.0
77.3747 321.0
77.4415 326.0
77.5084 305.0
77.5752 328.0
77.6421 302.0
77.7089 348.0
77.7757 320.0
77.8426 324.0
77.9094 383.0
77.9763 336.0
78.0431 356.0
78.11 360.0
78.1768 338.0
78.2437 403.0
78.3105 336.0
78.3773 391.0
78.4442 376.0
78.511 373.0
78.5779 326.0
78.6447 392.0
78.7116 347.0
78.7784 328.0
78.8453 335.0
78.9121 388.0
78.979 373.0
79.0458 337.0
79.1126 360.0
79.1795 341.0
79.2463 346.0
79.3132 337.0
79.38 332.0
79.4469 299.0
79.5137 303.0
79.5806 329.0
79.6474 314.0
79.7143 298.0
79.7811 337.0
79.8479 297.0
79.9148 305.0
79.9816 318.0
80.0485 365.0
80.1153 302.0
80.1822 275.0
80.249 331.0
80.3159 292.0
80.3827 294.0
80.4495 326.0
80.5164 321.0
80.5832 279.0
80.6501 272.0
80.7169 282.0
80.7838 293.0
80.8506 280.0
80.9175 274.0
80.9843 282.0
81.0512 267.0
81.118 271.0
81.1848 289.0
81.2517 252.0
81.3185 268.0
81.3854 263.0
81.4522 257.0
81.5191 251.0
81.5859 261.0
81.6528 232.0
81.7196 266.0
81.7864 282.0
81.8533 274.0
81.9201 271.0
81.987 266.0
82.0538 263.0
82.1207 235.0
82.1875 230.0
82.2544 255.0
82.3212 263.0
82.3881 255.0
82.4549 272.0
82.5217 257.0
82.5886 251.0
82.6554 270.0
82.7223 260.0
82.7891 263.0
82.856 258.0
82.9228 277.0
82.9897 278.0
83.0565 230.0
83.1233 243.0
83.1902 231.0
83.257 211.0
83.3239 241.0
83.3907 241.0
83.4576 239.0
83.5244 230.0
83.5913 252.0
83.6581 222.0
83.725 248.0
83.7918 214.0
83.8586 225.0
83.9255 199.0
83.9923 240.0
84.0592 240.0
84.126 208.0
84.1929 196.0
84.2597 231.0
84.3266 229.0
84.3934 220.0
84.4603 252.0
84.5271 217.0
84.5939 237.0
84.6608 240.0
84.7276 230.0
84.7945 215.0
84.8613 245.0
84.9282 213.0
84.995 239.0
85.0619 208.0
85.1287 208.0
85.1955 204.0
85.2624 208.0
85.3292 237.0
85.3961 216.0
85.4629 222.0
85.5298 209.0
85.5966 213.0
85.6635 194.0
85.7303 188.0
85.7972 192.0
85.864 195.0
85.9308 212.0
85.9977 203.0
86.0645 196.0
86.1314 222.0
86.1982 176.0
86.2651 223.0
86.3319 214.0
86.3988 190.0
86.4656 217.0
86.5324 196.0
86.5993 210.0
86.6661 201.0
86.733 169.0
86.7998 200.0
86.8667 199.0
86.9335 199.0
87.0004 189.0
87.0672 192.0
87.1341 199.0
87.2009 212.0
87.2677 179.0
87.3346 194.0
87.4014 203.0
87.4683 205.0
87.5351 209.0
87.602 197.0
87.6688 176.0
87.7357 180.0
87.8025 182.0
87.8693 169.0
87.9362 213.0
88.003 204.0
88.0699 182.0
88.1367 184.0
88.2036 194.0
88.2704 224.0
88.3373 209.0
88.4041 205.0
88.471 192.0
88.5378 188.0
88.6046 206.0
88.6715 213.0
88.7383 200.0
88.8052 190.0
88.872 194.0
88.9389 185.0
89.0057 204.0
89.0726 183.0
89.1394 223.0
89.2063 199.0
89.2731 201.0
89.3399 190.0
89.4068 216.0
89.4736 168.0
89.5405 196.0
89.6073 174.0
89.6742 225.0
89.741 201.0
89.8079 193.0
89.8747 179.0
89.9415 191.0