File: code/XRD_Analysis/External Sources/Fabian/25012024_ZnZrOx_calc.xy
4.98146 1203.0
5.0483 1165.0
5.11515 1159.0
5.18199 1131.0
5.24884 1095.0
5.31568 1089.0
5.38253 1086.0
5.44937 1011.0
5.51622 1094.0
5.58306 1053.0
5.64991 961.0
5.71675 973.0
5.7836 995.0
5.85044 990.0
5.91729 961.0
5.98413 915.0
6.05098 904.0
6.11782 879.0
6.18467 839.0
6.25151 894.0
6.31836 849.0
6.3852 855.0
6.45205 884.0
6.51889 826.0
6.58574 816.0
6.65258 884.0
6.71943 834.0
6.78627 822.0
6.85312 816.0
6.91996 783.0
6.98681 805.0
7.05365 788.0
7.1205 752.0
7.18734 764.0
7.25419 754.0
7.32103 753.0
7.38788 757.0
7.45472 742.0
7.52157 680.0
7.58841 740.0
7.65526 705.0
7.7221 686.0
7.78895 728.0
7.85579 670.0
7.92264 680.0
7.98948 707.0
8.05633 648.0
8.12317 607.0
8.19002 664.0
8.25686 634.0
8.32371 659.0
8.39055 579.0
8.4574 654.0
8.52424 588.0
8.59109 606.0
8.65793 629.0
8.72478 651.0
8.79162 629.0
8.85847 583.0
8.92532 594.0
8.99216 597.0
9.05901 606.0
9.12585 602.0
9.1927 558.0
9.25954 564.0
9.32639 559.0
9.39323 514.0
9.46008 561.0
9.52692 554.0
9.59377 531.0
9.66061 535.0
9.72746 560.0
9.7943 595.0
9.86115 566.0
9.92799 544.0
9.99484 511.0
10.0617 503.0
10.1285 488.0
10.1954 511.0
10.2622 553.0
10.3291 504.0
10.3959 487.0
10.4628 511.0
10.5296 489.0
10.5964 497.0
10.6633 470.0
10.7301 461.0
10.797 488.0
10.8638 465.0
10.9307 500.0
10.9975 461.0
11.0644 453.0
11.1312 495.0
11.198 465.0
11.2649 469.0
11.3317 457.0
11.3986 442.0
11.4654 413.0
11.5323 399.0
11.5991 408.0
11.666 451.0
11.7328 445.0
11.7997 396.0
11.8665 422.0
11.9333 424.0
12.0002 444.0
12.067 401.0
12.1339 429.0
12.2007 410.0
12.2676 396.0
12.3344 379.0
12.4013 394.0
12.4681 420.0
12.5349 383.0
12.6018 356.0
12.6686 408.0
12.7355 406.0
12.8023 407.0
12.8692 397.0
12.936 367.0
13.0029 372.0
13.0697 409.0
13.1366 385.0
13.2034 365.0
13.2702 349.0
13.3371 376.0
13.4039 412.0
13.4708 337.0
13.5376 375.0
13.6045 357.0
13.6713 395.0
13.7382 422.0
13.805 366.0
13.8719 326.0
13.9387 367.0
14.0055 331.0
14.0724 347.0
14.1392 326.0
14.2061 341.0
14.2729 352.0
14.3398 338.0
14.4066 366.0
14.4735 337.0
14.5403 308.0
14.6071 329.0
14.674 318.0
14.7408 304.0
14.8077 332.0
14.8745 297.0
14.9414 311.0
15.0082 315.0
15.0751 301.0
15.1419 314.0
15.2088 338.0
15.2756 325.0
15.3424 313.0
15.4093 314.0
15.4761 297.0
15.543 334.0
15.6098 305.0
15.6767 302.0
15.7435 302.0
15.8104 294.0
15.8772 307.0
15.944 280.0
16.0109 334.0
16.0777 313.0
16.1446 285.0
16.2114 322.0
16.2783 289.0
16.3451 317.0
16.412 307.0
16.4788 282.0
16.5457 301.0
16.6125 263.0
16.6793 290.0
16.7462 272.0
16.813 269.0
16.8799 292.0
16.9467 269.0
17.0136 263.0
17.0804 326.0
17.1473 286.0
17.2141 300.0
17.2809 311.0
17.3478 292.0
17.4146 315.0
17.4815 256.0
17.5483 270.0
17.6152 276.0
17.682 295.0
17.7489 288.0
17.8157 295.0
17.8826 276.0
17.9494 287.0
18.0162 291.0
18.0831 302.0
18.1499 262.0
18.2168 229.0
18.2836 278.0
18.3505 293.0
18.4173 271.0
18.4842 245.0
18.551 276.0
18.6179 294.0
18.6847 295.0
18.7515 238.0
18.8184 278.0
18.8852 246.0
18.9521 300.0
19.0189 283.0
19.0858 273.0
19.1526 270.0
19.2195 269.0
19.2863 246.0
19.3531 282.0
19.42 290.0
19.4868 295.0
19.5537 257.0
19.6205 273.0
19.6874 271.0
19.7542 293.0
19.8211 294.0
19.8879 268.0
19.9548 286.0
20.0216 243.0
20.0884 263.0
20.1553 282.0
20.2221 300.0
20.289 268.0
20.3558 262.0
20.4227 275.0
20.4895 280.0
20.5564 285.0
20.6232 256.0
20.69 270.0
20.7569 289.0
20.8237 279.0
20.8906 295.0
20.9574 286.0
21.0243 305.0
21.0911 279.0
21.158 292.0
21.2248 291.0
21.2917 300.0
21.3585 303.0
21.4253 274.0
21.4922 269.0
21.559 266.0
21.6259 331.0
21.6927 295.0
21.7596 304.0
21.8264 267.0
21.8933 298.0
21.9601 283.0
22.0269 288.0
22.0938 321.0
22.1606 349.0
22.2275 302.0
22.2943 287.0
22.3612 313.0
22.428 325.0
22.4949 321.0
22.5617 305.0
22.6286 321.0
22.6954 323.0
22.7622 346.0
22.8291 322.0
22.8959 333.0
22.9628 326.0
23.0296 307.0
23.0965 329.0
23.1633 328.0
23.2302 333.0
23.297 354.0
23.3639 337.0
23.4307 346.0
23.4975 349.0
23.5644 306.0
23.6312 376.0
23.6981 367.0
23.7649 337.0
23.8318 364.0
23.8986 383.0
23.9655 354.0
24.0323 345.0
24.0991 348.0
24.166 348.0
24.2328 338.0
24.2997 383.0
24.3665 361.0
24.4334 391.0
24.5002 376.0
24.5671 417.0
24.6339 386.0
24.7008 387.0
24.7676 451.0
24.8344 414.0
24.9013 381.0
24.9681 403.0
25.035 409.0
25.1018 454.0
25.1687 399.0
25.2355 432.0
25.3024 464.0
25.3692 373.0
25.436 435.0
25.5029 440.0
25.5697 457.0
25.6366 408.0
25.7034 459.0
25.7703 434.0
25.8371 423.0
25.904 454.0
25.9708 461.0
26.0377 471.0
26.1045 471.0
26.1713 490.0
26.2382 501.0
26.305 514.0
26.3719 480.0
26.4387 486.0
26.5056 508.0
26.5724 538.0
26.6393 541.0
26.7061 563.0
26.773 493.0
26.8398 540.0
26.9066 529.0
26.9735 516.0
27.0403 557.0
27.1072 528.0
27.174 584.0
27.2409 543.0
27.3077 534.0
27.3746 548.0
27.4414 581.0
27.5082 620.0
27.5751 652.0
27.6419 639.0
27.7088 654.0
27.7756 659.0
27.8425 613.0
27.9093 645.0
27.9762 723.0
28.043 665.0
28.1099 756.0
28.1767 686.0
28.2435 716.0
28.3104 707.0
28.3772 675.0
28.4441 750.0
28.5109 771.0
28.5778 750.0
28.6446 744.0
28.7115 727.0
28.7783 850.0
28.8451 817.0
28.912 817.0
28.9788 876.0
29.0457 917.0
29.1125 941.0
29.1794 953.0
29.2462 1003.0
29.3131 1031.0
29.3799 1051.0
29.4468 1097.0
29.5136 1075.0
29.5804 1180.0
29.6473 1293.0
29.7141 1303.0
29.781 1416.0
29.8478 1385.0
29.9147 1622.0
29.9815 1735.0
30.0484 2037.0
30.1152 2235.0
30.182 2633.0
30.2489 3198.0
30.3157 4057.0
30.3826 5186.0
30.4494 6303.0
30.5163 6837.0
30.5831 6643.0
30.65 5306.0
30.7168 4152.0
30.7837 3231.0
30.8505 2492.0
30.9173 2053.0
30.9842 1859.0
31.051 1648.0
31.1179 1501.0
31.1847 1380.0
31.2516 1377.0
31.3184 1274.0
31.3853 1243.0
31.4521 1226.0
31.519 1205.0
31.5858 1122.0
31.6526 1135.0
31.7195 1135.0
31.7863 1050.0
31.8532 1056.0
31.92 1016.0
31.9869 1079.0
32.0537 1037.0
32.1206 1049.0
32.1874 1018.0
32.2542 1018.0
32.3211 981.0
32.3879 1018.0
32.4548 988.0
32.5216 963.0
32.5885 931.0
32.6553 1019.0
32.7222 958.0
32.789 1029.0
32.8559 1009.0
32.9227 951.0
32.9895 957.0
33.0564 972.0
33.1232 937.0
33.1901 984.0
33.2569 947.0
33.3238 945.0
33.3906 976.0
33.4575 928.0
33.5243 939.0
33.5911 861.0
33.658 878.0
33.7248 884.0
33.7917 892.0
33.8585 888.0
33.9254 835.0
33.9922 797.0
34.0591 844.0
34.1259 859.0
34.1928 814.0
34.2596 814.0
34.3264 820.0
34.3933 838.0
34.4601 784.0
34.527 805.0
34.5938 782.0
34.6607 844.0
34.7275 860.0
34.7944 820.0
34.8612 797.0
34.928 926.0
34.9949 930.0
35.0617 1007.0
35.1286 1209.0
35.1954 1283.0
35.2623 1586.0
35.3291 1861.0
35.396 1773.0
35.4628 1738.0
35.5297 1426.0
35.5965 1118.0
35.6633 928.0
35.7302 837.0
35.797 741.0
35.8639 651.0
35.9307 613.0
35.9976 596.0
36.0644 496.0
36.1313 503.0
36.1981 481.0
36.265 461.0
36.3318 443.0
36.3986 431.0
36.4655 447.0
36.5323 419.0
36.5992 384.0
36.666 342.0
36.7329 387.0
36.7997 383.0
36.8666 348.0
36.9334 338.0
37.0002 314.0
37.0671 337.0
37.1339 337.0
37.2008 298.0
37.2676 341.0
37.3345 314.0
37.4013 335.0
37.4682 287.0
37.535 303.0
37.6019 313.0
37.6687 293.0
37.7355 317.0
37.8024 294.0
37.8692 311.0
37.9361 294.0
38.0029 274.0
38.0698 289.0
38.1366 254.0
38.2035 280.0
38.2703 258.0
38.3371 292.0
38.404 272.0
38.4708 233.0
38.5377 268.0
38.6045 285.0
38.6714 257.0
38.7382 295.0
38.8051 256.0
38.8719 251.0
38.9388 290.0
39.0056 283.0
39.0724 291.0
39.1393 235.0
39.2061 272.0
39.273 275.0
39.3398 246.0
39.4067 277.0
39.4735 264.0
39.5404 266.0
39.6072 276.0
39.6741 287.0
39.7409 292.0
39.8077 260.0
39.8746 251.0
39.9414 274.0
40.0083 256.0
40.0751 251.0
40.142 243.0
40.2088 291.0
40.2757 284.0
40.3425 282.0
40.4093 233.0
40.4762 244.0
40.543 287.0
40.6099 267.0
40.6767 250.0
40.7436 272.0
40.8104 288.0
40.8773 261.0
40.9441 266.0
41.011 264.0
41.0778 293.0
41.1446 316.0
41.2115 286.0
41.2783 266.0
41.3452 268.0
41.412 303.0
41.4789 313.0
41.5457 289.0
41.6126 285.0
41.6794 282.0
41.7462 294.0
41.8131 297.0
41.8799 319.0
41.9468 290.0
42.0136 322.0
42.0805 272.0
42.1473 320.0
42.2142 291.0
42.281 316.0
42.3479 334.0
42.4147 339.0
42.4815 320.0
42.5484 304.0
42.6152 291.0
42.6821 310.0
42.7489 285.0
42.8158 358.0
42.8826 326.0
42.9495 320.0
43.0163 333.0
43.0831 317.0
43.15 322.0
43.2168 318.0
43.2837 375.0
43.3505 306.0
43.4174 316.0
43.4842 348.0
43.5511 335.0
43.6179 326.0
43.6848 348.0
43.7516 350.0
43.8184 358.0
43.8853 311.0
43.9521 293.0
44.019 362.0
44.0858 366.0
44.1527 339.0
44.2195 344.0
44.2864 370.0
44.3532 326.0
44.4201 368.0
44.4869 365.0
44.5537 308.0
44.6206 351.0
44.6874 352.0
44.7543 381.0
44.8211 339.0
44.888 334.0
44.9548 396.0
45.0217 385.0
45.0885 367.0
45.1553 332.0
45.2222 384.0
45.289 380.0
45.3559 370.0
45.4227 411.0
45.4896 391.0
45.5564 362.0
45.6233 358.0
45.6901 368.0
45.757 377.0
45.8238 398.0
45.8906 345.0
45.9575 394.0
46.0243 378.0
46.0912 396.0
46.158 355.0
46.2249 360.0
46.2917 344.0
46.3586 398.0
46.4254 378.0
46.4922 403.0
46.5591 370.0
46.6259 411.0
46.6928 382.0
46.7596 392.0
46.8265 398.0
46.8933 449.0
46.9602 417.0
47.027 422.0
47.0939 409.0
47.1607 408.0
47.2275 369.0
47.2944 419.0
47.3612 427.0
47.4281 429.0
47.4949 459.0
47.5618 424.0
47.6286 443.0
47.6955 412.0
47.7623 436.0
47.8291 483.0
47.896 485.0
47.9628 440.0
48.0297 445.0
48.0965 448.0
48.1634 469.0
48.2302 455.0
48.2971 489.0
48.3639 480.0
48.4308 471.0
48.4976 476.0
48.5644 485.0
48.6313 527.0
48.6981 507.0
48.765 502.0
48.8318 542.0
48.8987 492.0
48.9655 576.0
49.0324 473.0
49.0992 580.0
49.1661 547.0
49.2329 538.0
49.2997 603.0
49.3666 587.0
49.4334 632.0
49.5003 610.0
49.5671 662.0
49.634 634.0
49.7008 707.0
49.7677 678.0
49.8345 744.0
49.9013 730.0
49.9682 766.0
50.035 818.0
50.1019 845.0
50.1687 894.0
50.2356 1022.0
50.3024 1048.0
50.3693 1200.0
50.4361 1362.0
50.503 1511.0
50.5698 1721.0
50.6366 1908.0
50.7035 2340.0
50.7703 2590.0
50.8372 2922.0
50.904 2983.0
50.9709 2791.0
51.0377 2419.0
51.1046 2073.0
51.1714 1757.0
51.2382 1509.0
51.3051 1209.0
51.3719 1070.0
51.4388 938.0
51.5056 832.0
51.5725 737.0
51.6393 717.0
51.7062 742.0
51.773 629.0
51.8399 635.0
51.9067 597.0
51.9735 580.0
52.0404 606.0
52.1072 547.0
52.1741 588.0
52.2409 542.0
52.3078 555.0
52.3746 521.0
52.4415 525.0
52.5083 501.0
52.5751 559.0
52.642 505.0
52.7088 523.0
52.7757 536.0
52.8425 510.0
52.9094 532.0
52.9762 496.0
53.0431 480.0
53.1099 490.0
53.1768 476.0
53.2436 507.0
53.3104 471.0
53.3773 475.0
53.4441 458.0
53.511 533.0
53.5778 479.0
53.6447 475.0
53.7115 470.0
53.7784 476.0
53.8452 466.0
53.9121 495.0
53.9789 489.0
54.0457 470.0
54.1126 442.0
54.1794 473.0
54.2463 507.0
54.3131 512.0
54.38 459.0
54.4468 475.0
54.5137 471.0
54.5805 521.0
54.6473 481.0
54.7142 519.0
54.781 482.0
54.8479 512.0
54.9147 487.0
54.9816 480.0
55.0484 522.0
55.1153 529.0
55.1821 458.0
55.249 449.0
55.3158 488.0
55.3826 482.0
55.4495 492.0
55.5163 470.0
55.5832 473.0
55.65 478.0
55.7169 471.0
55.7837 510.0
55.8506 447.0
55.9174 492.0
55.9842 441.0
56.0511 485.0
56.1179 448.0
56.1848 467.0
56.2516 480.0
56.3185 480.0
56.3853 480.0
56.4522 494.0
56.519 467.0
56.5859 465.0
56.6527 431.0
56.7195 447.0
56.7864 510.0
56.8532 503.0
56.9201 501.0
56.9869 496.0
57.0538 516.0
57.1206 488.0
57.1875 492.0
57.2543 490.0
57.3212 486.0
57.388 497.0
57.4548 431.0
57.5217 493.0
57.5885 439.0
57.6554 508.0
57.7222 506.0
57.7891 490.0
57.8559 512.0
57.9228 506.0
57.9896 507.0
58.0564 520.0
58.1233 486.0
58.1901 470.0
58.257 543.0
58.3238 474.0
58.3907 538.0
58.4575 538.0
58.5244 531.0
58.5912 568.0
58.6581 540.0
58.7249 516.0
58.7917 571.0
58.8586 572.0
58.9254 600.0
58.9923 613.0
59.0591 590.0
59.126 587.0
59.1928 590.0
59.2597 597.0
59.3265 599.0
59.3933 600.0
59.4602 690.0
59.527 695.0
59.5939 695.0
59.6607 741.0
59.7276 771.0
59.7944 825.0
59.8613 870.0
59.9281 935.0
59.995 1007.0
60.0618 1123.0
60.1286 1242.0
60.1955 1331.0
60.2623 1539.0
60.3292 1668.0
60.396 1930.0
60.4629 2088.0
60.5297 2019.0
60.5966 1878.0
60.6634 1725.0
60.7302 1491.0
60.7971 1275.0
60.8639 1115.0
60.9308 956.0
60.9976 908.0
61.0645 741.0
61.1313 707.0
61.1982 676.0
61.265 632.0
61.3319 579.0
61.3987 502.0
61.4655 598.0
61.5324 512.0
61.5992 490.0
61.6661 485.0
61.7329 503.0
61.7998 446.0
61.8666 466.0
61.9335 479.0
62.0003 485.0
62.0672 464.0
62.134 449.0
62.2008 470.0
62.2677 476.0
62.3345 454.0
62.4014 410.0
62.4682 439.0
62.5351 449.0
62.6019 441.0
62.6688 471.0
62.7356 477.0
62.8024 462.0
62.8693 433.0
62.9361 502.0
63.003 493.0
63.0698 482.0
63.1367 514.0
63.2035 528.0
63.2704 621.0
63.3372 568.0
63.4041 644.0
63.4709 658.0
63.5377 630.0
63.6046 586.0
63.6714 523.0
63.7383 548.0
63.8051 482.0
63.872 443.0
63.9388 434.0
64.0057 447.0
64.0725 394.0
64.1393 387.0
64.2062 416.0
64.273 402.0
64.3399 389.0
64.4067 362.0
64.4736 348.0
64.5404 376.0
64.6073 349.0
64.6741 337.0
64.741 350.0
64.8078 382.0
64.8746 344.0
64.9415 366.0
65.0083 346.0
65.0752 310.0
65.142 328.0
65.2089 319.0
65.2757 307.0
65.3426 337.0
65.4094 319.0
65.4762 325.0
65.5431 324.0
65.6099 349.0
65.6768 309.0
65.7436 331.0
65.8105 285.0
65.8773 332.0
65.9442 294.0
66.011 262.0
66.0779 301.0
66.1447 295.0
66.2115 313.0
66.2784 297.0
66.3452 321.0
66.4121 297.0
66.4789 304.0
66.5458 292.0
66.6126 314.0
66.6795 301.0
66.7463 276.0
66.8132 294.0
66.88 289.0
66.9468 260.0
67.0137 284.0
67.0805 299.0
67.1474 298.0
67.2142 286.0
67.2811 263.0
67.3479 289.0
67.4148 274.0
67.4816 258.0
67.5484 307.0
67.6153 263.0
67.6821 256.0
67.749 247.0
67.8158 266.0
67.8827 267.0
67.9495 251.0
68.0164 301.0
68.0832 245.0
68.1501 263.0
68.2169 232.0
68.2837 259.0
68.3506 263.0
68.4174 269.0
68.4843 272.0
68.5511 263.0
68.618 232.0
68.6848 262.0
68.7517 263.0
68.8185 247.0
68.8853 268.0
68.9522 264.0
69.019 256.0
69.0859 257.0
69.1527 208.0
69.2196 216.0
69.2864 256.0
69.3533 245.0
69.4201 259.0
69.487 269.0
69.5538 210.0
69.6206 252.0
69.6875 236.0
69.7543 236.0
69.8212 235.0
69.888 263.0
69.9549 226.0
70.0217 252.0
70.0886 230.0
70.1554 227.0
70.2222 227.0
70.2891 223.0
70.3559 229.0
70.4228 246.0
70.4896 207.0
70.5565 229.0
70.6233 201.0
70.6902 197.0
70.757 213.0
70.8239 214.0
70.8907 230.0
70.9575 213.0
71.0244 224.0
71.0912 267.0
71.1581 206.0
71.2249 222.0
71.2918 241.0
71.3586 219.0
71.4255 245.0
71.4923 223.0
71.5592 197.0
71.626 214.0
71.6928 229.0
71.7597 217.0
71.8265 211.0
71.8934 208.0
71.9602 212.0
72.0271 233.0
72.0939 201.0
72.1608 197.0
72.2276 220.0
72.2944 217.0
72.3613 206.0
72.4281 236.0
72.495 232.0
72.5618 195.0
72.6287 227.0
72.6955 228.0
72.7624 224.0
72.8292 211.0
72.8961 195.0
72.9629 236.0
73.0297 207.0
73.0966 235.0
73.1634 195.0
73.2303 217.0
73.2971 222.0
73.364 242.0
73.4308 253.0
73.4977 263.0
73.5645 233.0
73.6313 233.0
73.6982 255.0
73.765 223.0
73.8319 215.0
73.8987 241.0
73.9656 270.0
74.0324 271.0
74.0993 258.0
74.1661 241.0
74.233 283.0
74.2998 294.0
74.3666 289.0
74.4335 318.0
74.5003 333.0
74.5672 339.0
74.634 368.0
74.7009 436.0
74.7677 415.0
74.8346 426.0
74.9014 399.0
74.9683 383.0
75.0351 383.0
75.1019 352.0
75.1688 329.0
75.2356 300.0
75.3025 275.0
75.3693 251.0
75.4362 254.0
75.503 241.0
75.5699 212.0
75.6367 205.0
75.7035 211.0
75.7704 192.0
75.8372 210.0
75.9041 189.0
75.9709 223.0
76.0378 181.0
76.1046 165.0
76.1715 181.0
76.2383 223.0
76.3052 208.0
76.372 201.0
76.4388 197.0
76.5057 203.0
76.5725 185.0
76.6394 229.0
76.7062 211.0
76.7731 217.0
76.8399 186.0
76.9068 199.0
76.9736 178.0
77.0404 195.0
77.1073 198.0
77.1741 186.0
77.241 201.0
77.3078 216.0
77.3747 180.0
77.4415 196.0
77.5084 208.0
77.5752 210.0
77.6421 212.0
77.7089 208.0
77.7757 212.0
77.8426 180.0
77.9094 208.0
77.9763 193.0
78.0431 192.0
78.11 164.0
78.1768 196.0
78.2437 221.0
78.3105 230.0
78.3773 197.0
78.4442 224.0
78.511 191.0
78.5779 191.0
78.6447 175.0
78.7116 220.0
78.7784 184.0
78.8453 198.0
78.9121 173.0
78.979 191.0
79.0458 243.0
79.1126 177.0
79.1795 205.0
79.2463 230.0
79.3132 195.0
79.38 233.0
79.4469 203.0
79.5137 206.0
79.5806 224.0
79.6474 213.0
79.7143 222.0
79.7811 246.0
79.8479 217.0
79.9148 220.0
79.9816 213.0
80.0485 194.0
80.1153 228.0
80.1822 236.0
80.249 237.0
80.3159 239.0
80.3827 216.0
80.4495 253.0
80.5164 230.0
80.5832 252.0
80.6501 238.0
80.7169 250.0
80.7838 256.0
80.8506 266.0
80.9175 243.0
80.9843 244.0
81.0512 258.0
81.118 245.0
81.1848 292.0
81.2517 250.0
81.3185 255.0
81.3854 288.0
81.4522 243.0
81.5191 285.0
81.5859 274.0
81.6528 280.0
81.7196 290.0
81.7864 297.0
81.8533 313.0
81.9201 346.0
81.987 337.0
82.0538 369.0
82.1207 386.0
82.1875 379.0
82.2544 430.0
82.3212 430.0
82.3881 420.0
82.4549 478.0
82.5217 451.0
82.5886 479.0
82.6554 566.0
82.7223 567.0
82.7891 612.0
82.856 588.0
82.9228 521.0
82.9897 553.0
83.0565 517.0
83.1233 521.0
83.1902 503.0
83.257 436.0
83.3239 428.0
83.3907 365.0
83.4576 372.0
83.5244 371.0
83.5913 364.0
83.6581 331.0
83.725 317.0
83.7918 320.0
83.8586 295.0
83.9255 291.0
83.9923 278.0
84.0592 310.0
84.126 299.0
84.1929 300.0
84.2597 314.0
84.3266 301.0
84.3934 275.0
84.4603 308.0
84.5271 329.0
84.5939 313.0
84.6608 306.0
84.7276 326.0
84.7945 316.0
84.8613 329.0
84.9282 299.0
84.995 373.0
85.0619 366.0
85.1287 403.0
85.1955 424.0
85.2624 395.0
85.3292 424.0
85.3961 467.0
85.4629 435.0
85.5298 439.0
85.5966 463.0
85.6635 456.0
85.7303 408.0
85.7972 379.0
85.864 396.0
85.9308 373.0
85.9977 366.0
86.0645 299.0
86.1314 310.0
86.1982 336.0
86.2651 270.0
86.3319 262.0
86.3988 264.0
86.4656 254.0
86.5324 241.0
86.5993 251.0
86.6661 242.0
86.733 251.0
86.7998 250.0
86.8667 250.0
86.9335 259.0
87.0004 246.0
87.0672 228.0
87.1341 215.0
87.2009 225.0
87.2677 236.0
87.3346 220.0
87.4014 236.0
87.4683 224.0
87.5351 227.0
87.602 236.0
87.6688 226.0
87.7357 261.0
87.8025 223.0
87.8693 240.0
87.9362 216.0
88.003 192.0
88.0699 242.0
88.1367 242.0
88.2036 215.0
88.2704 215.0
88.3373 231.0
88.4041 217.0
88.471 217.0
88.5378 243.0
88.6046 215.0
88.6715 227.0
88.7383 237.0
88.8052 239.0
88.872 235.0
88.9389 224.0
89.0057 208.0
89.0726 225.0
89.1394 231.0
89.2063 216.0
89.2731 212.0
89.3399 220.0
89.4068 238.0
89.4736 239.0
89.5405 214.0
89.6073 231.0
89.6742 233.0
89.741 219.0
89.8079 260.0
89.8747 205.0
89.9415 236.0