File: code/XRD_Analysis/Zeolites/data_files/SAPO-14_SAPO-34_comp/assynth/20241019_SAPO-14_SAPO-34_composite_Probe-1_assynth.xy
4.98146 967.0
5.0483 945.0
5.11515 949.0
5.18199 914.0
5.24884 880.0
5.31568 868.0
5.38253 915.0
5.44937 882.0
5.51622 844.0
5.58306 893.0
5.64991 851.0
5.71675 792.0
5.7836 840.0
5.85044 821.0
5.91729 812.0
5.98413 815.0
6.05098 844.0
6.11782 805.0
6.18467 829.0
6.25151 841.0
6.31836 784.0
6.3852 801.0
6.45205 797.0
6.51889 715.0
6.58574 737.0
6.65258 734.0
6.71943 704.0
6.78627 704.0
6.85312 710.0
6.91996 693.0
6.98681 669.0
7.05365 641.0
7.1205 663.0
7.18734 638.0
7.25419 652.0
7.32103 651.0
7.38788 621.0
7.45472 667.0
7.52157 613.0
7.58841 651.0
7.65526 606.0
7.7221 638.0
7.78895 619.0
7.85579 619.0
7.92264 612.0
7.98948 658.0
8.05633 585.0
8.12317 617.0
8.19002 610.0
8.25686 569.0
8.32371 584.0
8.39055 632.0
8.4574 644.0
8.52424 588.0
8.59109 654.0
8.65793 775.0
8.72478 809.0
8.79162 1088.0
8.85847 2038.0
8.92532 5198.0
8.99216 16151.0
9.05901 18331.0
9.12585 1692.0
9.1927 916.0
9.25954 848.0
9.32639 1017.0
9.39323 1788.0
9.46008 4600.0
9.52692 9378.0
9.59377 3866.0
9.66061 902.0
9.72746 660.0
9.7943 618.0
9.86115 569.0
9.92799 538.0
9.99484 567.0
10.0617 525.0
10.1285 521.0
10.1954 442.0
10.2622 470.0
10.3291 489.0
10.3959 441.0
10.4628 496.0
10.5296 470.0
10.5964 457.0
10.6633 487.0
10.7301 489.0
10.797 425.0
10.8638 514.0
10.9307 566.0
10.9975 641.0
11.0644 1482.0
11.1312 4063.0
11.198 4338.0
11.2649 1209.0
11.3317 545.0
11.3986 459.0
11.4654 440.0
11.5323 450.0
11.5991 432.0
11.666 400.0
11.7328 407.0
11.7997 444.0
11.8665 467.0
11.9333 420.0
12.0002 439.0
12.067 431.0
12.1339 422.0
12.2007 444.0
12.2676 397.0
12.3344 400.0
12.4013 434.0
12.4681 420.0
12.5349 469.0
12.6018 436.0
12.6686 501.0
12.7355 580.0
12.8023 978.0
12.8692 1792.0
12.936 1749.0
13.0029 2496.0
13.0697 5737.0
13.1366 2766.0
13.2034 656.0
13.2702 723.0
13.3371 1766.0
13.4039 3051.0
13.4708 1039.0
13.5376 432.0
13.6045 403.0
13.6713 381.0
13.7382 391.0
13.805 430.0
13.8719 446.0
13.9387 394.0
14.0055 410.0
14.0724 388.0
14.1392 348.0
14.2061 365.0
14.2729 379.0
14.3398 396.0
14.4066 335.0
14.4735 344.0
14.5403 403.0
14.6071 357.0
14.674 414.0
14.7408 486.0
14.8077 601.0
14.8745 540.0
14.9414 401.0
15.0082 355.0
15.0751 328.0
15.1419 360.0
15.2088 361.0
15.2756 383.0
15.3424 417.0
15.4093 388.0
15.4761 407.0
15.543 396.0
15.6098 435.0
15.6767 514.0
15.7435 1138.0
15.8104 2925.0
15.8772 3589.0
15.944 5017.0
16.0109 4469.0
16.0777 2542.0
16.1446 893.0
16.2114 466.0
16.2783 449.0
16.3451 389.0
16.412 354.0
16.4788 331.0
16.5457 334.0
16.6125 352.0
16.6793 363.0
16.7462 334.0
16.813 350.0
16.8799 337.0
16.9467 345.0
17.0136 339.0
17.0804 353.0
17.1473 332.0
17.2141 397.0
17.2809 347.0
17.3478 358.0
17.4146 394.0
17.4815 422.0
17.5483 439.0
17.6152 483.0
17.682 458.0
17.7489 617.0
17.8157 1335.0
17.8826 2225.0
17.9494 2568.0
18.0162 3608.0
18.0831 2725.0
18.1499 784.0
18.2168 427.0
18.2836 407.0
18.3505 323.0
18.4173 336.0
18.4842 333.0
18.551 360.0
18.6179 411.0
18.6847 619.0
18.7515 1036.0
18.8184 672.0
18.8852 396.0
18.9521 479.0
19.0189 705.0
19.0858 1019.0
19.1526 941.0
19.2195 898.0
19.2863 424.0
19.3531 345.0
19.42 370.0
19.4868 334.0
19.5537 337.0
19.6205 379.0
19.6874 356.0
19.7542 341.0
19.8211 350.0
19.8879 380.0
19.9548 375.0
20.0216 394.0
20.0884 438.0
20.1553 466.0
20.2221 448.0
20.289 480.0
20.3558 763.0
20.4227 1336.0
20.4895 2311.0
20.5564 4917.0
20.6232 6930.0
20.69 4032.0
20.7569 1747.0
20.8237 2301.0
20.8906 3460.0
20.9574 1547.0
21.0243 554.0
21.0911 476.0
21.158 412.0
21.2248 399.0
21.2917 413.0
21.3585 456.0
21.4253 371.0
21.4922 488.0
21.559 627.0
21.6259 899.0
21.6927 1084.0
21.7596 2191.0
21.8264 4426.0
21.8933 3161.0
21.9601 1142.0
22.0269 1075.0
22.0938 1451.0
22.1606 1657.0
22.2275 3280.0
22.2943 3689.0
22.3612 2331.0
22.428 2665.0
22.4949 2892.0
22.5617 2507.0
22.6286 3822.0
22.6954 7404.0
22.7622 6871.0
22.8291 6579.0
22.8959 3738.0
22.9628 1258.0
23.0296 1243.0
23.0965 1412.0
23.1633 1099.0
23.2302 652.0
23.297 533.0
23.3639 472.0
23.4307 433.0
23.4975 393.0
23.5644 386.0
23.6312 373.0
23.6981 386.0
23.7649 446.0
23.8318 658.0
23.8986 757.0
23.9655 464.0
24.0323 381.0
24.0991 376.0
24.166 394.0
24.2328 363.0
24.2997 385.0
24.3665 380.0
24.4334 386.0
24.5002 406.0
24.5671 386.0
24.6339 422.0
24.7008 429.0
24.7676 480.0
24.8344 523.0
24.9013 752.0
24.9681 1518.0
25.035 3315.0
25.1018 3274.0
25.1687 1407.0
25.2355 679.0
25.3024 550.0
25.3692 669.0
25.436 1069.0
25.5029 973.0
25.5697 574.0
25.6366 455.0
25.7034 599.0
25.7703 928.0
25.8371 1525.0
25.904 1790.0
25.9708 1486.0
26.0377 996.0
26.1045 1241.0
26.1713 3080.0
26.2382 3392.0
26.305 2769.0
26.3719 1246.0
26.4387 661.0
26.5056 778.0
26.5724 674.0
26.6393 514.0
26.7061 500.0
26.773 424.0
26.8398 417.0
26.9066 448.0
26.9735 461.0
27.0403 448.0
27.1072 520.0
27.174 1110.0
27.2409 1468.0
27.3077 803.0
27.3746 425.0
27.4414 363.0
27.5082 454.0
27.5751 686.0
27.6419 1274.0
27.7088 1667.0
27.7756 1080.0
27.8425 528.0
27.9093 477.0
27.9762 408.0
28.043 363.0
28.1099 394.0
28.1767 669.0
28.2435 884.0
28.3104 742.0
28.3772 489.0
28.4441 383.0
28.5109 419.0
28.5778 424.0
28.6446 566.0
28.7115 732.0
28.7783 919.0
28.8451 1196.0
28.912 1091.0
28.9788 1325.0
29.0457 2249.0
29.1125 1624.0
29.1794 809.0
29.2462 494.0
29.3131 495.0
29.3799 605.0
29.4468 1318.0
29.5136 3203.0
29.5804 4626.0
29.6473 3656.0
29.7141 2035.0
29.781 1738.0
29.8478 1172.0
29.9147 754.0
29.9815 676.0
30.0484 714.0
30.1152 935.0
30.182 1512.0
30.2489 1329.0
30.3157 1482.0
30.3826 2559.0
30.4494 2324.0
30.5163 2276.0
30.5831 2873.0
30.65 2786.0
30.7168 2178.0
30.7837 2578.0
30.8505 5176.0
30.9173 4847.0
30.9842 3987.0
31.051 2300.0
31.1179 2126.0
31.1847 2391.0
31.2516 1975.0
31.3184 1151.0
31.3853 806.0
31.4521 583.0
31.519 469.0
31.5858 598.0
31.6526 597.0
31.7195 501.0
31.7863 443.0
31.8532 366.0
31.92 402.0
31.9869 489.0
32.0537 534.0
32.1206 677.0
32.1874 1175.0
32.2542 963.0
32.3211 711.0
32.3879 523.0
32.4548 701.0
32.5216 882.0
32.5885 835.0
32.6553 981.0
32.7222 629.0
32.789 438.0
32.8559 344.0
32.9227 348.0
32.9895 313.0
33.0564 305.0
33.1232 479.0
33.1901 800.0
33.2569 994.0
33.3238 882.0
33.3906 659.0
33.4575 490.0
33.5243 639.0
33.5911 960.0
33.658 946.0
33.7248 1335.0
33.7917 1928.0
33.8585 1220.0
33.9254 674.0
33.9922 397.0
34.0591 334.0
34.1259 346.0
34.1928 373.0
34.2596 502.0
34.3264 705.0
34.3933 923.0
34.4601 993.0
34.527 861.0
34.5938 660.0
34.6607 441.0
34.7275 331.0
34.7944 322.0
34.8612 370.0
34.928 466.0
34.9949 494.0
35.0617 625.0
35.1286 903.0
35.1954 680.0
35.2623 548.0
35.3291 380.0
35.396 361.0
35.4628 326.0
35.5297 526.0
35.5965 1164.0
35.6633 1388.0
35.7302 951.0
35.797 600.0
35.8639 472.0
35.9307 397.0
35.9976 387.0
36.0644 590.0
36.1313 898.0
36.1981 739.0
36.265 518.0
36.3318 344.0
36.3986 408.0
36.4655 578.0
36.5323 771.0
36.5992 633.0
36.666 482.0
36.7329 393.0
36.7997 460.0
36.8666 383.0
36.9334 275.0
37.0002 266.0
37.0671 280.0
37.1339 388.0
37.2008 498.0
37.2676 489.0
37.3345 493.0
37.4013 384.0
37.4682 341.0
37.535 311.0
37.6019 270.0
37.6687 250.0
37.7355 257.0
37.8024 232.0
37.8692 305.0
37.9361 424.0
38.0029 532.0
38.0698 411.0
38.1366 349.0
38.2035 354.0
38.2703 418.0
38.3371 549.0
38.404 648.0
38.4708 691.0
38.5377 716.0
38.6045 513.0
38.6714 430.0
38.7382 395.0
38.8051 414.0
38.8719 533.0
38.9388 663.0
39.0056 708.0
39.0724 886.0
39.1393 712.0
39.2061 871.0
39.273 752.0
39.3398 661.0
39.4067 566.0
39.4735 501.0
39.5404 453.0
39.6072 447.0
39.6741 565.0
39.7409 677.0
39.8077 519.0
39.8746 454.0
39.9414 355.0
40.0083 355.0
40.0751 362.0
40.142 543.0
40.2088 576.0
40.2757 423.0
40.3425 404.0
40.4093 494.0
40.4762 807.0
40.543 580.0
40.6099 507.0
40.6767 335.0
40.7436 416.0
40.8104 547.0
40.8773 799.0
40.9441 762.0
41.011 914.0
41.0778 662.0
41.1446 535.0
41.2115 273.0
41.2783 253.0
41.3452 245.0
41.412 235.0
41.4789 258.0
41.5457 235.0
41.6126 227.0
41.6794 241.0
41.7462 236.0
41.8131 274.0
41.8799 288.0
41.9468 287.0
42.0136 289.0
42.0805 370.0
42.1473 564.0
42.2142 630.0
42.281 651.0
42.3479 726.0
42.4147 681.0
42.4815 494.0
42.5484 407.0
42.6152 438.0
42.6821 668.0
42.7489 653.0
42.8158 566.0
42.8826 510.0
42.9495 494.0
43.0163 422.0
43.0831 480.0
43.15 498.0
43.2168 474.0
43.2837 518.0
43.3505 538.0
43.4174 548.0
43.4842 514.0
43.5511 442.0
43.6179 386.0
43.6848 290.0
43.7516 232.0
43.8184 250.0
43.8853 284.0
43.9521 334.0
44.019 482.0
44.0858 537.0
44.1527 628.0
44.2195 466.0
44.2864 376.0
44.3532 358.0
44.4201 406.0
44.4869 637.0
44.5537 816.0
44.6206 682.0
44.6874 525.0
44.7543 394.0
44.8211 365.0
44.888 436.0
44.9548 681.0
45.0217 634.0
45.0885 527.0
45.1553 433.0
45.2222 315.0
45.289 262.0
45.3559 302.0
45.4227 275.0
45.4896 240.0
45.5564 258.0
45.6233 352.0
45.6901 386.0
45.757 309.0
45.8238 286.0
45.8906 266.0
45.9575 238.0
46.0243 331.0
46.0912 397.0
46.158 505.0
46.2249 345.0
46.2917 326.0
46.3586 283.0
46.4254 397.0
46.4922 706.0
46.5591 637.0
46.6259 605.0
46.6928 490.0
46.7596 395.0
46.8265 429.0
46.8933 438.0
46.9602 417.0
47.027 454.0
47.0939 433.0
47.1607 426.0
47.2275 397.0
47.2944 365.0
47.3612 424.0
47.4281 584.0
47.4949 563.0
47.5618 516.0
47.6286 527.0
47.6955 542.0
47.7623 572.0
47.8291 597.0
47.896 603.0
47.9628 559.0
48.0297 658.0
48.0965 497.0
48.1634 407.0
48.2302 353.0
48.2971 358.0
48.3639 413.0
48.4308 463.0
48.4976 408.0
48.5644 514.0
48.6313 664.0
48.6981 661.0
48.765 650.0
48.8318 681.0
48.8987 693.0
48.9655 744.0
49.0324 631.0
49.0992 587.0
49.1661 566.0
49.2329 488.0
49.2997 473.0
49.3666 404.0
49.4334 389.0
49.5003 420.0
49.5671 333.0
49.634 345.0
49.7008 297.0
49.7677 264.0
49.8345 247.0
49.9013 304.0
49.9682 493.0
50.035 443.0
50.1019 415.0
50.1687 392.0
50.2356 306.0
50.3024 314.0
50.3693 326.0
50.4361 354.0
50.503 311.0
50.5698 338.0
50.6366 372.0
50.7035 400.0
50.7703 531.0
50.8372 627.0
50.904 561.0
50.9709 524.0
51.0377 407.0
51.1046 399.0
51.1714 418.0
51.2382 368.0
51.3051 422.0
51.3719 366.0
51.4388 313.0
51.5056 283.0
51.5725 274.0
51.6393 283.0
51.7062 258.0
51.773 330.0
51.8399 429.0
51.9067 465.0
51.9735 411.0
52.0404 510.0
52.1072 582.0
52.1741 521.0
52.2409 559.0
52.3078 504.0
52.3746 403.0
52.4415 371.0
52.5083 324.0
52.5751 398.0
52.642 337.0
52.7088 286.0
52.7757 386.0
52.8425 494.0
52.9094 485.0
52.9762 455.0
53.0431 472.0
53.1099 440.0
53.1768 519.0
53.2436 558.0
53.3104 518.0
53.3773 602.0
53.4441 596.0
53.511 522.0
53.5778 506.0
53.6447 549.0
53.7115 435.0
53.7784 415.0
53.8452 422.0
53.9121 502.0
53.9789 601.0
54.0457 752.0
54.1126 859.0
54.1794 757.0
54.2463 788.0
54.3131 728.0
54.38 771.0
54.4468 707.0
54.5137 631.0
54.5805 575.0
54.6473 485.0
54.7142 387.0
54.781 308.0
54.8479 298.0
54.9147 284.0
54.9816 315.0
55.0484 321.0
55.1153 307.0
55.1821 391.0
55.249 492.0
55.3158 439.0
55.3826 373.0
55.4495 443.0
55.5163 387.0
55.5832 329.0
55.65 351.0
55.7169 325.0
55.7837 305.0
55.8506 336.0
55.9174 431.0
55.9842 582.0
56.0511 557.0
56.1179 635.0
56.1848 490.0
56.2516 458.0
56.3185 378.0
56.3853 330.0
56.4522 310.0
56.519 290.0
56.5859 344.0
56.6527 375.0
56.7195 329.0
56.7864 410.0
56.8532 489.0
56.9201 364.0
56.9869 313.0
57.0538 318.0
57.1206 377.0
57.1875 368.0
57.2543 362.0
57.3212 395.0
57.388 317.0
57.4548 277.0
57.5217 269.0
57.5885 309.0
57.6554 376.0
57.7222 387.0
57.7891 398.0
57.8559 330.0
57.9228 317.0
57.9896 328.0
58.0564 330.0
58.1233 282.0
58.1901 287.0
58.257 309.0
58.3238 309.0
58.3907 353.0
58.4575 342.0
58.5244 403.0
58.5912 379.0
58.6581 278.0
58.7249 331.0
58.7917 270.0
58.8586 246.0
58.9254 279.0
58.9923 291.0
59.0591 353.0
59.126 318.0
59.1928 331.0
59.2597 372.0
59.3265 337.0
59.3933 400.0
59.4602 379.0
59.527 436.0
59.5939 416.0
59.6607 488.0
59.7276 495.0
59.7944 440.0
59.8613 516.0
59.9281 475.0
59.995 457.0
60.0618 410.0
60.1286 381.0
60.1955 311.0
60.2623 280.0
60.3292 315.0
60.396 284.0
60.4629 288.0
60.5297 317.0
60.5966 248.0
60.6634 308.0
60.7302 369.0
60.7971 550.0
60.8639 714.0
60.9308 684.0
60.9976 703.0
61.0645 633.0
61.1313 545.0
61.1982 684.0
61.265 688.0
61.3319 507.0
61.3987 528.0
61.4655 477.0
61.5324 438.0
61.5992 415.0
61.6661 436.0
61.7329 493.0
61.7998 396.0
61.8666 356.0
61.9335 350.0
62.0003 333.0
62.0672 371.0
62.134 450.0
62.2008 460.0
62.2677 472.0
62.3345 449.0
62.4014 427.0
62.4682 401.0
62.5351 436.0
62.6019 476.0
62.6688 494.0
62.7356 586.0
62.8024 594.0
62.8693 588.0
62.9361 518.0
63.003 430.0
63.0698 377.0
63.1367 380.0
63.2035 350.0
63.2704 309.0
63.3372 341.0
63.4041 344.0
63.4709 321.0
63.5377 330.0
63.6046 336.0
63.6714 380.0
63.7383 319.0
63.8051 333.0
63.872 372.0
63.9388 329.0
64.0057 278.0
64.0725 306.0
64.1393 371.0
64.2062 393.0
64.273 346.0
64.3399 344.0
64.4067 334.0
64.4736 344.0
64.5404 318.0
64.6073 295.0
64.6741 300.0
64.741 314.0
64.8078 318.0
64.8746 250.0
64.9415 254.0
65.0083 272.0
65.0752 279.0
65.142 291.0
65.2089 358.0
65.2757 311.0
65.3426 277.0
65.4094 284.0
65.4762 304.0
65.5431 338.0
65.6099 347.0
65.6768 316.0
65.7436 355.0
65.8105 441.0
65.8773 402.0
65.9442 433.0
66.011 571.0
66.0779 586.0
66.1447 582.0
66.2115 554.0
66.2784 430.0
66.3452 429.0
66.4121 471.0
66.4789 330.0
66.5458 288.0
66.6126 278.0
66.6795 276.0
66.7463 298.0
66.8132 333.0
66.88 298.0
66.9468 395.0
67.0137 386.0
67.0805 341.0
67.1474 301.0
67.2142 310.0
67.2811 304.0
67.3479 325.0
67.4148 332.0
67.4816 289.0
67.5484 300.0
67.6153 309.0
67.6821 321.0
67.749 335.0
67.8158 310.0
67.8827 294.0
67.9495 325.0
68.0164 263.0
68.0832 245.0
68.1501 240.0
68.2169 258.0
68.2837 261.0
68.3506 283.0
68.4174 335.0
68.4843 352.0
68.5511 369.0
68.618 470.0
68.6848 422.0
68.7517 332.0
68.8185 398.0
68.8853 395.0
68.9522 301.0
69.019 313.0
69.0859 345.0
69.1527 319.0
69.2196 318.0
69.2864 310.0
69.3533 345.0
69.4201 332.0
69.487 284.0
69.5538 269.0
69.6206 263.0
69.6875 243.0
69.7543 241.0
69.8212 264.0
69.888 299.0
69.9549 326.0
70.0217 333.0
70.0886 316.0
70.1554 292.0
70.2222 328.0
70.2891 383.0
70.3559 364.0
70.4228 377.0
70.4896 428.0
70.5565 486.0
70.6233 554.0
70.6902 590.0
70.757 565.0
70.8239 549.0
70.8907 518.0
70.9575 638.0
71.0244 703.0
71.0912 635.0
71.1581 596.0
71.2249 527.0
71.2918 456.0
71.3586 429.0
71.4255 394.0
71.4923 401.0
71.5592 425.0
71.626 370.0
71.6928 379.0
71.7597 341.0
71.8265 337.0
71.8934 419.0
71.9602 540.0
72.0271 464.0
72.0939 411.0
72.1608 453.0
72.2276 430.0
72.2944 481.0
72.3613 420.0
72.4281 443.0
72.495 567.0
72.5618 598.0
72.6287 574.0
72.6955 542.0
72.7624 491.0
72.8292 409.0
72.8961 404.0
72.9629 377.0
73.0297 357.0
73.0966 333.0
73.1634 255.0
73.2303 236.0
73.2971 237.0
73.364 227.0
73.4308 196.0
73.4977 188.0
73.5645 194.0
73.6313 223.0
73.6982 205.0
73.765 256.0
73.8319 244.0
73.8987 225.0
73.9656 291.0
74.0324 301.0
74.0993 331.0
74.1661 372.0
74.233 399.0
74.2998 350.0
74.3666 314.0
74.4335 333.0
74.5003 354.0
74.5672 391.0
74.634 384.0
74.7009 368.0
74.7677 379.0
74.8346 342.0
74.9014 351.0
74.9683 358.0
75.0351 318.0
75.1019 344.0
75.1688 376.0
75.2356 424.0
75.3025 352.0
75.3693 375.0
75.4362 398.0
75.503 328.0
75.5699 304.0
75.6367 314.0
75.7035 292.0
75.7704 307.0
75.8372 375.0
75.9041 460.0
75.9709 389.0
76.0378 357.0
76.1046 417.0
76.1715 379.0
76.2383 289.0
76.3052 293.0
76.372 287.0
76.4388 223.0
76.5057 231.0
76.5725 223.0
76.6394 264.0
76.7062 222.0
76.7731 256.0
76.8399 252.0
76.9068 252.0
76.9736 220.0
77.0404 226.0
77.1073 212.0
77.1741 222.0
77.241 212.0
77.3078 224.0
77.3747 272.0
77.4415 216.0
77.5084 211.0
77.5752 214.0
77.6421 210.0
77.7089 205.0
77.7757 229.0
77.8426 253.0
77.9094 224.0
77.9763 212.0
78.0431 260.0
78.11 273.0
78.1768 267.0
78.2437 279.0
78.3105 264.0
78.3773 241.0
78.4442 310.0
78.511 301.0
78.5779 253.0
78.6447 275.0
78.7116 301.0
78.7784 320.0
78.8453 261.0
78.9121 298.0
78.979 311.0
79.0458 282.0
79.1126 251.0
79.1795 329.0
79.2463 360.0
79.3132 292.0
79.38 266.0
79.4469 304.0
79.5137 292.0
79.5806 344.0
79.6474 268.0
79.7143 291.0
79.7811 348.0
79.8479 318.0
79.9148 315.0
79.9816 280.0
80.0485 321.0
80.1153 347.0
80.1822 324.0
80.249 325.0
80.3159 290.0
80.3827 301.0
80.4495 331.0
80.5164 325.0
80.5832 350.0
80.6501 301.0
80.7169 320.0
80.7838 315.0
80.8506 324.0
80.9175 298.0
80.9843 321.0
81.0512 309.0
81.118 306.0
81.1848 295.0
81.2517 255.0
81.3185 243.0
81.3854 266.0
81.4522 245.0
81.5191 283.0
81.5859 246.0
81.6528 283.0
81.7196 269.0
81.7864 266.0
81.8533 206.0
81.9201 193.0
81.987 253.0
82.0538 209.0
82.1207 198.0
82.1875 201.0
82.2544 200.0
82.3212 210.0
82.3881 211.0
82.4549 236.0
82.5217 298.0
82.5886 260.0
82.6554 277.0
82.7223 267.0
82.7891 245.0
82.856 238.0
82.9228 203.0
82.9897 226.0
83.0565 229.0
83.1233 241.0
83.1902 222.0
83.257 245.0
83.3239 216.0
83.3907 181.0
83.4576 188.0
83.5244 181.0
83.5913 209.0
83.6581 176.0
83.725 164.0
83.7918 192.0
83.8586 180.0
83.9255 189.0
83.9923 236.0
84.0592 244.0
84.126 211.0
84.1929 247.0
84.2597 224.0
84.3266 225.0
84.3934 189.0
84.4603 185.0
84.5271 178.0
84.5939 166.0
84.6608 200.0
84.7276 179.0
84.7945 179.0
84.8613 182.0
84.9282 173.0
84.995 159.0
85.0619 180.0
85.1287 203.0
85.1955 252.0
85.2624 232.0
85.3292 194.0
85.3961 207.0
85.4629 209.0
85.5298 186.0
85.5966 190.0
85.6635 174.0
85.7303 210.0
85.7972 219.0
85.864 205.0
85.9308 178.0
85.9977 175.0
86.0645 181.0
86.1314 172.0
86.1982 183.0
86.2651 181.0
86.3319 205.0
86.3988 236.0
86.4656 199.0
86.5324 236.0
86.5993 226.0
86.6661 231.0
86.733 214.0
86.7998 225.0
86.8667 236.0
86.9335 186.0
87.0004 198.0
87.0672 238.0
87.1341 215.0
87.2009 212.0
87.2677 242.0
87.3346 219.0
87.4014 196.0
87.4683 220.0
87.5351 198.0
87.602 216.0
87.6688 219.0
87.7357 184.0
87.8025 220.0
87.8693 191.0
87.9362 214.0
88.003 176.0
88.0699 176.0
88.1367 224.0
88.2036 195.0
88.2704 195.0
88.3373 173.0
88.4041 203.0
88.471 181.0
88.5378 178.0
88.6046 157.0
88.6715 153.0
88.7383 182.0
88.8052 175.0
88.872 157.0
88.9389 149.0
89.0057 166.0
89.0726 153.0
89.1394 162.0
89.2063 141.0
89.2731 160.0
89.3399 154.0
89.4068 158.0
89.4736 123.0
89.5405 157.0
89.6073 166.0
89.6742 195.0
89.741 160.0
89.8079 176.0
89.8747 146.0
89.9415 157.0