File: code/XRD_Analysis/Zeolites/data_files/SAPO-14_SAPO-34_comp/assynth/20241019_SAPO-14_SAPO-34_composite_Probe-2_assynth.xy
4.98146 1042.0
5.0483 974.0
5.11515 934.0
5.18199 885.0
5.24884 935.0
5.31568 886.0
5.38253 958.0
5.44937 853.0
5.51622 883.0
5.58306 889.0
5.64991 845.0
5.71675 875.0
5.7836 931.0
5.85044 943.0
5.91729 918.0
5.98413 996.0
6.05098 979.0
6.11782 1055.0
6.18467 1091.0
6.25151 1005.0
6.31836 935.0
6.3852 862.0
6.45205 869.0
6.51889 761.0
6.58574 803.0
6.65258 758.0
6.71943 726.0
6.78627 748.0
6.85312 688.0
6.91996 745.0
6.98681 747.0
7.05365 689.0
7.1205 661.0
7.18734 675.0
7.25419 658.0
7.32103 650.0
7.38788 592.0
7.45472 660.0
7.52157 656.0
7.58841 656.0
7.65526 637.0
7.7221 629.0
7.78895 629.0
7.85579 620.0
7.92264 665.0
7.98948 720.0
8.05633 666.0
8.12317 584.0
8.19002 585.0
8.25686 644.0
8.32371 600.0
8.39055 641.0
8.4574 612.0
8.52424 659.0
8.59109 648.0
8.65793 750.0
8.72478 939.0
8.79162 2017.0
8.85847 6800.0
8.92532 6493.0
8.99216 1017.0
9.05901 793.0
9.12585 745.0
9.1927 976.0
9.25954 1788.0
9.32639 5571.0
9.39323 15391.0
9.46008 4595.0
9.52692 792.0
9.59377 639.0
9.66061 588.0
9.72746 557.0
9.7943 555.0
9.86115 504.0
9.92799 514.0
9.99484 487.0
10.0617 506.0
10.1285 498.0
10.1954 483.0
10.2622 551.0
10.3291 495.0
10.3959 504.0
10.4628 513.0
10.5296 488.0
10.5964 527.0
10.6633 467.0
10.7301 507.0
10.797 508.0
10.8638 565.0
10.9307 763.0
10.9975 1770.0
11.0644 2229.0
11.1312 884.0
11.198 512.0
11.2649 457.0
11.3317 541.0
11.3986 507.0
11.4654 456.0
11.5323 525.0
11.5991 472.0
11.666 461.0
11.7328 493.0
11.7997 487.0
11.8665 512.0
11.9333 540.0
12.0002 505.0
12.067 478.0
12.1339 540.0
12.2007 545.0
12.2676 586.0
12.3344 569.0
12.4013 578.0
12.4681 635.0
12.5349 704.0
12.6018 803.0
12.6686 1766.0
12.7355 3733.0
12.8023 1696.0
12.8692 1236.0
12.936 2804.0
13.0029 1517.0
13.0697 535.0
13.1366 523.0
13.2034 856.0
13.2702 1604.0
13.3371 757.0
13.4039 454.0
13.4708 426.0
13.5376 410.0
13.6045 459.0
13.6713 426.0
13.7382 483.0
13.805 481.0
13.8719 706.0
13.9387 842.0
14.0055 481.0
14.0724 412.0
14.1392 413.0
14.2061 391.0
14.2729 429.0
14.3398 395.0
14.4066 433.0
14.4735 401.0
14.5403 408.0
14.6071 454.0
14.674 502.0
14.7408 495.0
14.8077 441.0
14.8745 395.0
14.9414 401.0
15.0082 389.0
15.0751 416.0
15.1419 435.0
15.2088 490.0
15.2756 472.0
15.3424 429.0
15.4093 472.0
15.4761 492.0
15.543 482.0
15.6098 648.0
15.6767 1583.0
15.7435 2020.0
15.8104 4154.0
15.8772 7864.0
15.944 3682.0
16.0109 813.0
16.0777 489.0
16.1446 438.0
16.2114 477.0
16.2783 408.0
16.3451 432.0
16.412 410.0
16.4788 439.0
16.5457 434.0
16.6125 434.0
16.6793 436.0
16.7462 426.0
16.813 412.0
16.8799 403.0
16.9467 407.0
17.0136 415.0
17.0804 467.0
17.1473 471.0
17.2141 445.0
17.2809 531.0
17.3478 585.0
17.4146 602.0
17.4815 586.0
17.5483 601.0
17.6152 626.0
17.682 1350.0
17.7489 4173.0
17.8157 3791.0
17.8826 2302.0
17.9494 1349.0
18.0162 569.0
18.0831 431.0
18.1499 436.0
18.2168 407.0
18.2836 402.0
18.3505 352.0
18.4173 433.0
18.4842 409.0
18.551 493.0
18.6179 696.0
18.6847 601.0
18.7515 409.0
18.8184 424.0
18.8852 804.0
18.9521 1308.0
19.0189 794.0
19.0858 583.0
19.1526 425.0
19.2195 427.0
19.2863 386.0
19.3531 357.0
19.42 400.0
19.4868 401.0
19.5537 482.0
19.6205 501.0
19.6874 464.0
19.7542 488.0
19.8211 478.0
19.8879 459.0
19.9548 522.0
20.0216 634.0
20.0884 898.0
20.1553 1761.0
20.2221 2352.0
20.289 2159.0
20.3558 4225.0
20.4227 15568.0
20.4895 14238.0
20.5564 3509.0
20.6232 982.0
20.69 1198.0
20.7569 1683.0
20.8237 974.0
20.8906 554.0
20.9574 506.0
21.0243 512.0
21.0911 474.0
21.158 518.0
21.2248 582.0
21.2917 1097.0
21.3585 1954.0
21.4253 1340.0
21.4922 962.0
21.559 918.0
21.6259 1229.0
21.6927 2383.0
21.7596 2012.0
21.8264 992.0
21.8933 1192.0
21.9601 2156.0
22.0269 1473.0
22.0938 1799.0
22.1606 2218.0
22.2275 1852.0
22.2943 1615.0
22.3612 1461.0
22.428 1230.0
22.4949 1541.0
22.5617 2940.0
22.6286 2682.0
22.6954 2800.0
22.7622 2064.0
22.8291 1662.0
22.8959 3344.0
22.9628 3273.0
23.0296 1451.0
23.0965 698.0
23.1633 553.0
23.2302 552.0
23.297 501.0
23.3639 463.0
23.4307 455.0
23.4975 471.0
23.5644 500.0
23.6312 475.0
23.6981 525.0
23.7649 570.0
23.8318 505.0
23.8986 478.0
23.9655 456.0
24.0323 457.0
24.0991 477.0
24.166 441.0
24.2328 491.0
24.2997 464.0
24.3665 446.0
24.4334 441.0
24.5002 525.0
24.5671 512.0
24.6339 503.0
24.7008 531.0
24.7676 670.0
24.8344 1110.0
24.9013 4526.0
24.9681 7545.0
25.035 3658.0
25.1018 949.0
25.1687 559.0
25.2355 533.0
25.3024 782.0
25.3692 707.0
25.436 556.0
25.5029 473.0
25.5697 589.0
25.6366 1232.0
25.7034 3701.0
25.7703 3413.0
25.8371 1413.0
25.904 551.0
25.9708 564.0
26.0377 1246.0
26.1045 1671.0
26.1713 1297.0
26.2382 724.0
26.305 456.0
26.3719 507.0
26.4387 493.0
26.5056 423.0
26.5724 400.0
26.6393 366.0
26.7061 409.0
26.773 397.0
26.8398 393.0
26.9066 369.0
26.9735 356.0
27.0403 626.0
27.1072 735.0
27.174 505.0
27.2409 391.0
27.3077 356.0
27.3746 582.0
27.4414 1253.0
27.5082 1438.0
27.5751 1130.0
27.6419 683.0
27.7088 428.0
27.7756 415.0
27.8425 392.0
27.9093 380.0
27.9762 436.0
28.043 576.0
28.1099 1066.0
28.1767 1157.0
28.2435 697.0
28.3104 399.0
28.3772 384.0
28.4441 420.0
28.5109 443.0
28.5778 564.0
28.6446 614.0
28.7115 703.0
28.7783 650.0
28.8451 704.0
28.912 1209.0
28.9788 1223.0
29.0457 820.0
29.1125 638.0
29.1794 574.0
29.2462 561.0
29.3131 836.0
29.3799 1892.0
29.4468 2362.0
29.5136 1911.0
29.5804 1303.0
29.6473 1396.0
29.7141 1016.0
29.781 740.0
29.8478 575.0
29.9147 601.0
29.9815 688.0
30.0484 854.0
30.1152 824.0
30.182 820.0
30.2489 1397.0
30.3157 1956.0
30.3826 5799.0
30.4494 6692.0
30.5163 3726.0
30.5831 1261.0
30.65 1076.0
30.7168 2165.0
30.7837 2822.0
30.8505 3321.0
30.9173 2320.0
30.9842 3376.0
31.051 4721.0
31.1179 2806.0
31.1847 1105.0
31.2516 704.0
31.3184 501.0
31.3853 520.0
31.4521 859.0
31.519 878.0
31.5858 618.0
31.6526 431.0
31.7195 425.0
31.7863 423.0
31.8532 417.0
31.92 465.0
31.9869 516.0
32.0537 686.0
32.1206 748.0
32.1874 706.0
32.2542 543.0
32.3211 525.0
32.3879 540.0
32.4548 579.0
32.5216 613.0
32.5885 470.0
32.6553 389.0
32.7222 336.0
32.789 332.0
32.8559 319.0
32.9227 349.0
32.9895 367.0
33.0564 556.0
33.1232 744.0
33.1901 676.0
33.2569 492.0
33.3238 403.0
33.3906 447.0
33.4575 719.0
33.5243 909.0
33.5911 868.0
33.658 997.0
33.7248 673.0
33.7917 513.0
33.8585 350.0
33.9254 352.0
33.9922 313.0
34.0591 337.0
34.1259 380.0
34.1928 716.0
34.2596 1765.0
34.3264 1778.0
34.3933 1082.0
34.4601 538.0
34.527 360.0
34.5938 334.0
34.6607 311.0
34.7275 510.0
34.7944 686.0
34.8612 501.0
34.928 429.0
34.9949 483.0
35.0617 459.0
35.1286 417.0
35.1954 447.0
35.2623 407.0
35.3291 516.0
35.396 573.0
35.4628 946.0
35.5297 1087.0
35.5965 775.0
35.6633 556.0
35.7302 489.0
35.797 447.0
35.8639 414.0
35.9307 552.0
35.9976 1100.0
36.0644 1097.0
36.1313 740.0
36.1981 448.0
36.265 384.0
36.3318 381.0
36.3986 470.0
36.4655 408.0
36.5323 393.0
36.5992 344.0
36.666 362.0
36.7329 324.0
36.7997 273.0
36.8666 261.0
36.9334 284.0
37.0002 340.0
37.0671 349.0
37.1339 318.0
37.2008 363.0
37.2676 329.0
37.3345 280.0
37.4013 261.0
37.4682 236.0
37.535 247.0
37.6019 256.0
37.6687 259.0
37.7355 262.0
37.8024 303.0
37.8692 336.0
37.9361 322.0
38.0029 386.0
38.0698 404.0
38.1366 354.0
38.2035 344.0
38.2703 368.0
38.3371 409.0
38.404 480.0
38.4708 622.0
38.5377 576.0
38.6045 431.0
38.6714 360.0
38.7382 305.0
38.8051 375.0
38.8719 414.0
38.9388 522.0
39.0056 486.0
39.0724 571.0
39.1393 569.0
39.2061 417.0
39.273 376.0
39.3398 361.0
39.4067 446.0
39.4735 694.0
39.5404 761.0
39.6072 636.0
39.6741 404.0
39.7409 311.0
39.8077 244.0
39.8746 271.0
39.9414 276.0
40.0083 305.0
40.0751 333.0
40.142 295.0
40.2088 262.0
40.2757 314.0
40.3425 460.0
40.4093 376.0
40.4762 301.0
40.543 257.0
40.6099 326.0
40.6767 370.0
40.7436 491.0
40.8104 487.0
40.8773 503.0
40.9441 397.0
41.011 333.0
41.0778 292.0
41.1446 232.0
41.2115 246.0
41.2783 220.0
41.3452 250.0
41.412 220.0
41.4789 214.0
41.5457 260.0
41.6126 259.0
41.6794 339.0
41.7462 372.0
41.8131 362.0
41.8799 284.0
41.9468 293.0
42.0136 361.0
42.0805 417.0
42.1473 433.0
42.2142 410.0
42.281 438.0
42.3479 369.0
42.4147 377.0
42.4815 388.0
42.5484 486.0
42.6152 450.0
42.6821 503.0
42.7489 599.0
42.8158 792.0
42.8826 611.0
42.9495 543.0
43.0163 392.0
43.0831 434.0
43.15 527.0
43.2168 773.0
43.2837 877.0
43.3505 666.0
43.4174 532.0
43.4842 299.0
43.5511 247.0
43.6179 301.0
43.6848 266.0
43.7516 285.0
43.8184 331.0
43.8853 348.0
43.9521 350.0
44.019 340.0
44.0858 315.0
44.1527 303.0
44.2195 250.0
44.2864 271.0
44.3532 352.0
44.4201 441.0
44.4869 351.0
44.5537 367.0
44.6206 310.0
44.6874 263.0
44.7543 309.0
44.8211 375.0
44.888 412.0
44.9548 476.0
45.0217 378.0
45.0885 288.0
45.1553 268.0
45.2222 257.0
45.289 293.0
45.3559 233.0
45.4227 284.0
45.4896 314.0
45.5564 314.0
45.6233 252.0
45.6901 261.0
45.757 263.0
45.8238 237.0
45.8906 264.0
45.9575 267.0
46.0243 336.0
46.0912 307.0
46.158 267.0
46.2249 230.0
46.2917 263.0
46.3586 346.0
46.4254 355.0
46.4922 444.0
46.5591 457.0
46.6259 344.0
46.6928 347.0
46.7596 325.0
46.8265 313.0
46.8933 318.0
46.9602 300.0
47.027 360.0
47.0939 400.0
47.1607 353.0
47.2275 346.0
47.2944 435.0
47.3612 678.0
47.4281 877.0
47.4949 693.0
47.5618 582.0
47.6286 439.0
47.6955 379.0
47.7623 361.0
47.8291 340.0
47.896 401.0
47.9628 356.0
48.0297 322.0
48.0965 295.0
48.1634 278.0
48.2302 275.0
48.2971 306.0
48.3639 297.0
48.4308 279.0
48.4976 389.0
48.5644 400.0
48.6313 430.0
48.6981 748.0
48.765 1093.0
48.8318 836.0
48.8987 732.0
48.9655 483.0
49.0324 368.0
49.0992 318.0
49.1661 336.0
49.2329 275.0
49.2997 315.0
49.3666 335.0
49.4334 561.0
49.5003 529.0
49.5671 444.0
49.634 367.0
49.7008 242.0
49.7677 224.0
49.8345 291.0
49.9013 278.0
49.9682 277.0
50.035 261.0
50.1019 259.0
50.1687 239.0
50.2356 299.0
50.3024 363.0
50.3693 402.0
50.4361 395.0
50.503 376.0
50.5698 375.0
50.6366 706.0
50.7035 961.0
50.7703 674.0
50.8372 592.0
50.904 445.0
50.9709 362.0
51.0377 364.0
51.1046 318.0
51.1714 351.0
51.2382 307.0
51.3051 332.0
51.3719 309.0
51.4388 295.0
51.5056 361.0
51.5725 369.0
51.6393 373.0
51.7062 306.0
51.773 305.0
51.8399 274.0
51.9067 342.0
51.9735 322.0
52.0404 308.0
52.1072 315.0
52.1741 264.0
52.2409 277.0
52.3078 272.0
52.3746 213.0
52.4415 241.0
52.5083 269.0
52.5751 251.0
52.642 259.0
52.7088 300.0
52.7757 295.0
52.8425 344.0
52.9094 486.0
52.9762 816.0
53.0431 823.0
53.1099 759.0
53.1768 662.0
53.2436 485.0
53.3104 385.0
53.3773 337.0
53.4441 356.0
53.511 348.0
53.5778 304.0
53.6447 304.0
53.7115 324.0
53.7784 314.0
53.8452 380.0
53.9121 429.0
53.9789 477.0
54.0457 447.0
54.1126 464.0
54.1794 416.0
54.2463 635.0
54.3131 678.0
54.38 516.0
54.4468 492.0
54.5137 346.0
54.5805 314.0
54.6473 283.0
54.7142 222.0
54.781 256.0
54.8479 251.0
54.9147 283.0
54.9816 254.0
55.0484 255.0
55.1153 308.0
55.1821 347.0
55.249 288.0
55.3158 306.0
55.3826 372.0
55.4495 511.0
55.5163 406.0
55.5832 439.0
55.65 526.0
55.7169 679.0
55.7837 606.0
55.8506 574.0
55.9174 489.0
55.9842 416.0
56.0511 479.0
56.1179 495.0
56.1848 395.0
56.2516 352.0
56.3185 333.0
56.3853 254.0
56.4522 239.0
56.519 309.0
56.5859 261.0
56.6527 319.0
56.7195 338.0
56.7864 322.0
56.8532 268.0
56.9201 291.0
56.9869 242.0
57.0538 292.0
57.1206 298.0
57.1875 351.0
57.2543 282.0
57.3212 304.0
57.388 255.0
57.4548 226.0
57.5217 257.0
57.5885 282.0
57.6554 290.0
57.7222 293.0
57.7891 269.0
57.8559 245.0
57.9228 273.0
57.9896 252.0
58.0564 240.0
58.1233 248.0
58.1901 262.0
58.257 328.0
58.3238 375.0
58.3907 321.0
58.4575 328.0
58.5244 305.0
58.5912 253.0
58.6581 272.0
58.7249 221.0
58.7917 247.0
58.8586 239.0
58.9254 277.0
58.9923 275.0
59.0591 251.0
59.126 282.0
59.1928 282.0
59.2597 339.0
59.3265 466.0
59.3933 555.0
59.4602 501.0
59.527 463.0
59.5939 529.0
59.6607 415.0
59.7276 336.0
59.7944 304.0
59.8613 324.0
59.9281 288.0
59.995 291.0
60.0618 315.0
60.1286 246.0
60.1955 266.0
60.2623 238.0
60.3292 286.0
60.396 245.0
60.4629 279.0
60.5297 266.0
60.5966 280.0
60.6634 370.0
60.7302 553.0
60.7971 619.0
60.8639 502.0
60.9308 488.0
60.9976 444.0
61.0645 491.0
61.1313 561.0
61.1982 432.0
61.265 394.0
61.3319 387.0
61.3987 362.0
61.4655 347.0
61.5324 321.0
61.5992 319.0
61.6661 311.0
61.7329 300.0
61.7998 323.0
61.8666 278.0
61.9335 274.0
62.0003 320.0
62.0672 334.0
62.134 348.0
62.2008 330.0
62.2677 304.0
62.3345 388.0
62.4014 387.0
62.4682 370.0
62.5351 379.0
62.6019 409.0
62.6688 356.0
62.7356 366.0
62.8024 316.0
62.8693 347.0
62.9361 238.0
63.003 247.0
63.0698 273.0
63.1367 232.0
63.2035 255.0
63.2704 295.0
63.3372 273.0
63.4041 291.0
63.4709 295.0
63.5377 243.0
63.6046 244.0
63.6714 226.0
63.7383 246.0
63.8051 278.0
63.872 235.0
63.9388 251.0
64.0057 291.0
64.0725 303.0
64.1393 286.0
64.2062 283.0
64.273 306.0
64.3399 272.0
64.4067 291.0
64.4736 304.0
64.5404 283.0
64.6073 289.0
64.6741 259.0
64.741 241.0
64.8078 242.0
64.8746 241.0
64.9415 236.0
65.0083 233.0
65.0752 237.0
65.142 227.0
65.2089 239.0
65.2757 216.0
65.3426 219.0
65.4094 242.0
65.4762 274.0
65.5431 231.0
65.6099 267.0
65.6768 274.0
65.7436 277.0
65.8105 402.0
65.8773 552.0
65.9442 604.0
66.011 543.0
66.0779 451.0
66.1447 398.0
66.2115 323.0
66.2784 300.0
66.3452 243.0
66.4121 231.0
66.4789 221.0
66.5458 251.0
66.6126 213.0
66.6795 226.0
66.7463 256.0
66.8132 391.0
66.88 567.0
66.9468 524.0
67.0137 392.0
67.0805 505.0
67.1474 425.0
67.2142 348.0
67.2811 291.0
67.3479 293.0
67.4148 287.0
67.4816 276.0
67.5484 298.0
67.6153 266.0
67.6821 222.0
67.749 258.0
67.8158 235.0
67.8827 239.0
67.9495 224.0
68.0164 211.0
68.0832 236.0
68.1501 248.0
68.2169 198.0
68.2837 231.0
68.3506 246.0
68.4174 241.0
68.4843 247.0
68.5511 248.0
68.618 282.0
68.6848 258.0
68.7517 315.0
68.8185 320.0
68.8853 442.0
68.9522 477.0
69.019 372.0
69.0859 358.0
69.1527 333.0
69.2196 276.0
69.2864 223.0
69.3533 243.0
69.4201 205.0
69.487 224.0
69.5538 222.0
69.6206 210.0
69.6875 219.0
69.7543 233.0
69.8212 248.0
69.888 311.0
69.9549 332.0
70.0217 345.0
70.0886 262.0
70.1554 342.0
70.2222 314.0
70.2891 279.0
70.3559 319.0
70.4228 304.0
70.4896 408.0
70.5565 513.0
70.6233 535.0
70.6902 431.0
70.757 492.0
70.8239 611.0
70.8907 662.0
70.9575 587.0
71.0244 498.0
71.0912 479.0
71.1581 395.0
71.2249 373.0
71.2918 308.0
71.3586 311.0
71.4255 282.0
71.4923 286.0
71.5592 270.0
71.626 260.0
71.6928 199.0
71.7597 237.0
71.8265 286.0
71.8934 313.0
71.9602 335.0
72.0271 357.0
72.0939 361.0
72.1608 306.0
72.2276 322.0
72.2944 308.0
72.3613 377.0
72.4281 340.0
72.495 341.0
72.5618 354.0
72.6287 295.0
72.6955 280.0
72.7624 299.0
72.8292 260.0
72.8961 221.0
72.9629 260.0
73.0297 237.0
73.0966 205.0
73.1634 206.0
73.2303 194.0
73.2971 190.0
73.364 167.0
73.4308 199.0
73.4977 190.0
73.5645 226.0
73.6313 225.0
73.6982 229.0
73.765 299.0
73.8319 288.0
73.8987 273.0
73.9656 270.0
74.0324 288.0
74.0993 285.0
74.1661 224.0
74.233 224.0
74.2998 232.0
74.3666 230.0
74.4335 232.0
74.5003 273.0
74.5672 284.0
74.634 264.0
74.7009 273.0
74.7677 255.0
74.8346 260.0
74.9014 346.0
74.9683 353.0
75.0351 366.0
75.1019 386.0
75.1688 397.0
75.2356 348.0
75.3025 352.0
75.3693 256.0
75.4362 254.0
75.503 243.0
75.5699 229.0
75.6367 244.0
75.7035 219.0
75.7704 272.0
75.8372 291.0
75.9041 280.0
75.9709 300.0
76.0378 316.0
76.1046 275.0
76.1715 277.0
76.2383 253.0
76.3052 216.0
76.372 230.0
76.4388 231.0
76.5057 226.0
76.5725 224.0
76.6394 192.0
76.7062 215.0
76.7731 214.0
76.8399 239.0
76.9068 189.0
76.9736 195.0
77.0404 192.0
77.1073 199.0
77.1741 193.0
77.241 230.0
77.3078 199.0
77.3747 210.0
77.4415 226.0
77.5084 217.0
77.5752 179.0
77.6421 185.0
77.7089 195.0
77.7757 247.0
77.8426 248.0
77.9094 300.0
77.9763 298.0
78.0431 240.0
78.11 242.0
78.1768 219.0
78.2437 211.0
78.3105 207.0
78.3773 233.0
78.4442 215.0
78.511 186.0
78.5779 188.0
78.6447 221.0
78.7116 186.0
78.7784 223.0
78.8453 261.0
78.9121 211.0
78.979 246.0
79.0458 243.0
79.1126 221.0
79.1795 268.0
79.2463 214.0
79.3132 221.0
79.38 256.0
79.4469 227.0
79.5137 212.0
79.5806 237.0
79.6474 239.0
79.7143 257.0
79.7811 243.0
79.8479 224.0
79.9148 224.0
79.9816 248.0
80.0485 240.0
80.1153 252.0
80.1822 266.0
80.249 311.0
80.3159 315.0
80.3827 313.0
80.4495 267.0
80.5164 261.0
80.5832 272.0
80.6501 274.0
80.7169 243.0
80.7838 243.0
80.8506 250.0
80.9175 223.0
80.9843 225.0
81.0512 247.0
81.118 253.0
81.1848 214.0
81.2517 221.0
81.3185 233.0
81.3854 226.0
81.4522 201.0
81.5191 188.0
81.5859 196.0
81.6528 205.0
81.7196 178.0
81.7864 183.0
81.8533 167.0
81.9201 176.0
81.987 170.0
82.0538 175.0
82.1207 154.0
82.1875 176.0
82.2544 174.0
82.3212 176.0
82.3881 201.0
82.4549 228.0
82.5217 204.0
82.5886 209.0
82.6554 211.0
82.7223 212.0
82.7891 216.0
82.856 182.0
82.9228 191.0
82.9897 183.0
83.0565 198.0
83.1233 204.0
83.1902 179.0
83.257 157.0
83.3239 183.0
83.3907 175.0
83.4576 162.0
83.5244 184.0
83.5913 184.0
83.6581 212.0
83.725 224.0
83.7918 228.0
83.8586 247.0
83.9255 210.0
83.9923 220.0
84.0592 211.0
84.126 203.0
84.1929 195.0
84.2597 169.0
84.3266 149.0
84.3934 157.0
84.4603 143.0
84.5271 158.0
84.5939 157.0
84.6608 164.0
84.7276 144.0
84.7945 151.0
84.8613 132.0
84.9282 146.0
84.995 158.0
85.0619 179.0
85.1287 174.0
85.1955 159.0
85.2624 181.0
85.3292 153.0
85.3961 152.0
85.4629 161.0
85.5298 180.0
85.5966 162.0
85.6635 152.0
85.7303 150.0
85.7972 134.0
85.864 143.0
85.9308 147.0
85.9977 129.0
86.0645 159.0
86.1314 153.0
86.1982 177.0
86.2651 166.0
86.3319 162.0
86.3988 162.0
86.4656 175.0
86.5324 182.0
86.5993 169.0
86.6661 207.0
86.733 193.0
86.7998 176.0
86.8667 150.0
86.9335 160.0
87.0004 157.0
87.0672 167.0
87.1341 165.0
87.2009 182.0
87.2677 172.0
87.3346 173.0
87.4014 190.0
87.4683 181.0
87.5351 159.0
87.602 164.0
87.6688 161.0
87.7357 159.0
87.8025 176.0
87.8693 137.0
87.9362 144.0
88.003 186.0
88.0699 196.0
88.1367 176.0
88.2036 168.0
88.2704 197.0
88.3373 194.0
88.4041 154.0
88.471 168.0
88.5378 135.0
88.6046 135.0
88.6715 139.0
88.7383 145.0
88.8052 116.0
88.872 150.0
88.9389 131.0
89.0057 103.0
89.0726 126.0
89.1394 114.0
89.2063 110.0
89.2731 145.0
89.3399 133.0
89.4068 130.0
89.4736 146.0
89.5405 141.0
89.6073 165.0
89.6742 153.0
89.741 134.0
89.8079 125.0
89.8747 135.0
89.9415 164.0