File: code/XRD_Analysis/Zeolites/data_files/SAPO-34/assynth/20241028_SAPO-34-1-assynth-Probe-1.xy
4.98146 991.0
5.0483 1009.0
5.11515 930.0
5.18199 930.0
5.24884 951.0
5.31568 892.0
5.38253 863.0
5.44937 864.0
5.51622 829.0
5.58306 854.0
5.64991 837.0
5.71675 835.0
5.7836 803.0
5.85044 830.0
5.91729 801.0
5.98413 751.0
6.05098 817.0
6.11782 725.0
6.18467 743.0
6.25151 819.0
6.31836 743.0
6.3852 734.0
6.45205 759.0
6.51889 721.0
6.58574 737.0
6.65258 707.0
6.71943 709.0
6.78627 693.0
6.85312 658.0
6.91996 666.0
6.98681 717.0
7.05365 711.0
7.1205 693.0
7.18734 675.0
7.25419 667.0
7.32103 683.0
7.38788 599.0
7.45472 641.0
7.52157 628.0
7.58841 627.0
7.65526 598.0
7.7221 618.0
7.78895 581.0
7.85579 650.0
7.92264 639.0
7.98948 628.0
8.05633 590.0
8.12317 537.0
8.19002 563.0
8.25686 587.0
8.32371 568.0
8.39055 585.0
8.4574 566.0
8.52424 564.0
8.59109 602.0
8.65793 542.0
8.72478 585.0
8.79162 558.0
8.85847 591.0
8.92532 646.0
8.99216 676.0
9.05901 732.0
9.12585 818.0
9.1927 1056.0
9.25954 2007.0
9.32639 6498.0
9.39323 17840.0
9.46008 10940.0
9.52692 3236.0
9.59377 1286.0
9.66061 966.0
9.72746 888.0
9.7943 764.0
9.86115 736.0
9.92799 762.0
9.99484 665.0
10.0617 657.0
10.1285 675.0
10.1954 644.0
10.2622 693.0
10.3291 604.0
10.3959 598.0
10.4628 621.0
10.5296 629.0
10.5964 618.0
10.6633 603.0
10.7301 564.0
10.797 620.0
10.8638 573.0
10.9307 620.0
10.9975 601.0
11.0644 586.0
11.1312 590.0
11.198 581.0
11.2649 559.0
11.3317 552.0
11.3986 568.0
11.4654 518.0
11.5323 543.0
11.5991 532.0
11.666 569.0
11.7328 526.0
11.7997 559.0
11.8665 520.0
11.9333 542.0
12.0002 535.0
12.067 560.0
12.1339 532.0
12.2007 554.0
12.2676 553.0
12.3344 559.0
12.4013 525.0
12.4681 557.0
12.5349 552.0
12.6018 648.0
12.6686 1169.0
12.7355 3159.0
12.8023 1937.0
12.8692 777.0
12.936 602.0
13.0029 554.0
13.0697 525.0
13.1366 539.0
13.2034 540.0
13.2702 542.0
13.3371 531.0
13.4039 444.0
13.4708 430.0
13.5376 453.0
13.6045 429.0
13.6713 453.0
13.7382 480.0
13.805 700.0
13.8719 1025.0
13.9387 1119.0
14.0055 859.0
14.0724 598.0
14.1392 588.0
14.2061 560.0
14.2729 554.0
14.3398 565.0
14.4066 558.0
14.4735 564.0
14.5403 545.0
14.6071 597.0
14.674 601.0
14.7408 570.0
14.8077 603.0
14.8745 592.0
14.9414 587.0
15.0082 626.0
15.0751 635.0
15.1419 609.0
15.2088 683.0
15.2756 684.0
15.3424 659.0
15.4093 661.0
15.4761 731.0
15.543 726.0
15.6098 760.0
15.6767 722.0
15.7435 928.0
15.8104 1912.0
15.8772 7836.0
15.944 8367.0
16.0109 2786.0
16.0777 1166.0
16.1446 906.0
16.2114 917.0
16.2783 920.0
16.3451 956.0
16.412 1109.0
16.4788 1177.0
16.5457 1320.0
16.6125 1336.0
16.6793 1472.0
16.7462 1532.0
16.813 1590.0
16.8799 1629.0
16.9467 1532.0
17.0136 1533.0
17.0804 1382.0
17.1473 1380.0
17.2141 1290.0
17.2809 1255.0
17.3478 1118.0
17.4146 1099.0
17.4815 1080.0
17.5483 1031.0
17.6152 1047.0
17.682 1138.0
17.7489 1301.0
17.8157 1565.0
17.8826 1448.0
17.9494 1082.0
18.0162 927.0
18.0831 881.0
18.1499 899.0
18.2168 878.0
18.2836 837.0
18.3505 834.0
18.4173 842.0
18.4842 851.0
18.551 808.0
18.6179 789.0
18.6847 832.0
18.7515 838.0
18.8184 868.0
18.8852 1247.0
18.9521 1385.0
19.0189 1062.0
19.0858 882.0
19.1526 859.0
19.2195 964.0
19.2863 973.0
19.3531 1012.0
19.42 1053.0
19.4868 1135.0
19.5537 1281.0
19.6205 1287.0
19.6874 1256.0
19.7542 1382.0
19.8211 1432.0
19.8879 1466.0
19.9548 1422.0
20.0216 1347.0
20.0884 1407.0
20.1553 1541.0
20.2221 1571.0
20.289 1755.0
20.3558 3219.0
20.4227 11151.0
20.4895 12825.0
20.5564 5706.0
20.6232 2771.0
20.69 2043.0
20.7569 1823.0
20.8237 1845.0
20.8906 1898.0
20.9574 1952.0
21.0243 2024.0
21.0911 2136.0
21.158 2197.0
21.2248 2152.0
21.2917 1948.0
21.3585 1547.0
21.4253 1123.0
21.4922 835.0
21.559 723.0
21.6259 588.0
21.6927 547.0
21.7596 517.0
21.8264 595.0
21.8933 766.0
21.9601 809.0
22.0269 757.0
22.0938 680.0
22.1606 599.0
22.2275 727.0
22.2943 656.0
22.3612 602.0
22.428 581.0
22.4949 645.0
22.5617 676.0
22.6286 678.0
22.6954 682.0
22.7622 656.0
22.8291 706.0
22.8959 953.0
22.9628 1604.0
23.0296 1569.0
23.0965 971.0
23.1633 801.0
23.2302 786.0
23.297 760.0
23.3639 863.0
23.4307 840.0
23.4975 922.0
23.5644 887.0
23.6312 1035.0
23.6981 979.0
23.7649 1099.0
23.8318 1165.0
23.8986 1109.0
23.9655 1207.0
24.0323 1223.0
24.0991 1213.0
24.166 1236.0
24.2328 1188.0
24.2997 1205.0
24.3665 1161.0
24.4334 1244.0
24.5002 1141.0
24.5671 1140.0
24.6339 1135.0
24.7008 1095.0
24.7676 1153.0
24.8344 1177.0
24.9013 1542.0
24.9681 1683.0
25.035 1753.0
25.1018 1690.0
25.1687 1347.0
25.2355 1161.0
25.3024 1114.0
25.3692 1048.0
25.436 1045.0
25.5029 1096.0
25.5697 1129.0
25.6366 1392.0
25.7034 2983.0
25.7703 3455.0
25.8371 2204.0
25.904 1304.0
25.9708 1117.0
26.0377 1075.0
26.1045 1047.0
26.1713 1016.0
26.2382 1042.0
26.305 897.0
26.3719 914.0
26.4387 899.0
26.5056 778.0
26.5724 792.0
26.6393 731.0
26.7061 695.0
26.773 773.0
26.8398 633.0
26.9066 637.0
26.9735 582.0
27.0403 604.0
27.1072 548.0
27.174 551.0
27.2409 527.0
27.3077 510.0
27.3746 619.0
27.4414 872.0
27.5082 1017.0
27.5751 770.0
27.6419 605.0
27.7088 554.0
27.7756 531.0
27.8425 504.0
27.9093 537.0
27.9762 627.0
28.043 769.0
28.1099 859.0
28.1767 760.0
28.2435 693.0
28.3104 656.0
28.3772 591.0
28.4441 549.0
28.5109 481.0
28.5778 457.0
28.6446 488.0
28.7115 498.0
28.7783 511.0
28.8451 514.0
28.912 558.0
28.9788 544.0
29.0457 536.0
29.1125 613.0
29.1794 573.0
29.2462 620.0
29.3131 774.0
29.3799 1319.0
29.4468 1291.0
29.5136 923.0
29.5804 782.0
29.6473 798.0
29.7141 918.0
29.781 991.0
29.8478 1144.0
29.9147 1224.0
29.9815 1339.0
30.0484 1446.0
30.1152 1522.0
30.182 1692.0
30.2489 1918.0
30.3157 2230.0
30.3826 2683.0
30.4494 3041.0
30.5163 2546.0
30.5831 2132.0
30.65 2013.0
30.7168 1989.0
30.7837 2187.0
30.8505 2468.0
30.9173 2833.0
30.9842 3084.0
31.051 2840.0
31.1179 2389.0
31.1847 1994.0
31.2516 1589.0
31.3184 1218.0
31.3853 1141.0
31.4521 1005.0
31.519 1143.0
31.5858 1227.0
31.6526 1113.0
31.7195 985.0
31.7863 934.0
31.8532 903.0
31.92 886.0
31.9869 883.0
32.0537 826.0
32.1206 893.0
32.1874 1066.0
32.2542 1052.0
32.3211 938.0
32.3879 819.0
32.4548 660.0
32.5216 625.0
32.5885 669.0
32.6553 619.0
32.7222 588.0
32.789 560.0
32.8559 558.0
32.9227 565.0
32.9895 548.0
33.0564 552.0
33.1232 565.0
33.1901 647.0
33.2569 580.0
33.3238 501.0
33.3906 520.0
33.4575 556.0
33.5243 519.0
33.5911 573.0
33.658 547.0
33.7248 487.0
33.7917 451.0
33.8585 510.0
33.9254 467.0
33.9922 473.0
34.0591 474.0
34.1259 531.0
34.1928 563.0
34.2596 716.0
34.3264 715.0
34.3933 648.0
34.4601 585.0
34.527 529.0
34.5938 465.0
34.6607 433.0
34.7275 381.0
34.7944 408.0
34.8612 397.0
34.928 375.0
34.9949 349.0
35.0617 365.0
35.1286 368.0
35.1954 370.0
35.2623 334.0
35.3291 354.0
35.396 383.0
35.4628 342.0
35.5297 378.0
35.5965 332.0
35.6633 367.0
35.7302 371.0
35.797 414.0
35.8639 427.0
35.9307 542.0
35.9976 527.0
36.0644 516.0
36.1313 501.0
36.1981 506.0
36.265 475.0
36.3318 402.0
36.3986 320.0
36.4655 291.0
36.5323 311.0
36.5992 294.0
36.666 275.0
36.7329 270.0
36.7997 291.0
36.8666 282.0
36.9334 264.0
37.0002 268.0
37.0671 271.0
37.1339 268.0
37.2008 276.0
37.2676 276.0
37.3345 274.0
37.4013 270.0
37.4682 277.0
37.535 285.0
37.6019 241.0
37.6687 250.0
37.7355 289.0
37.8024 272.0
37.8692 270.0
37.9361 280.0
38.0029 298.0
38.0698 293.0
38.1366 299.0
38.2035 232.0
38.2703 261.0
38.3371 262.0
38.404 323.0
38.4708 356.0
38.5377 363.0
38.6045 361.0
38.6714 459.0
38.7382 414.0
38.8051 380.0
38.8719 401.0
38.9388 406.0
39.0056 418.0
39.0724 426.0
39.1393 459.0
39.2061 435.0
39.273 434.0
39.3398 430.0
39.4067 413.0
39.4735 492.0
39.5404 478.0
39.6072 447.0
39.6741 355.0
39.7409 344.0
39.8077 323.0
39.8746 314.0
39.9414 339.0
40.0083 295.0
40.0751 285.0
40.142 286.0
40.2088 286.0
40.2757 247.0
40.3425 268.0
40.4093 266.0
40.4762 267.0
40.543 244.0
40.6099 241.0
40.6767 284.0
40.7436 282.0
40.8104 298.0
40.8773 300.0
40.9441 272.0
41.011 275.0
41.0778 279.0
41.1446 264.0
41.2115 294.0
41.2783 273.0
41.3452 277.0
41.412 286.0
41.4789 308.0
41.5457 279.0
41.6126 280.0
41.6794 319.0
41.7462 308.0
41.8131 307.0
41.8799 279.0
41.9468 247.0
42.0136 238.0
42.0805 246.0
42.1473 258.0
42.2142 232.0
42.281 229.0
42.3479 268.0
42.4147 222.0
42.4815 230.0
42.5484 251.0
42.6152 246.0
42.6821 294.0
42.7489 315.0
42.8158 361.0
42.8826 447.0
42.9495 513.0
43.0163 486.0
43.0831 514.0
43.15 601.0
43.2168 556.0
43.2837 564.0
43.3505 415.0
43.4174 350.0
43.4842 363.0
43.5511 331.0
43.6179 349.0
43.6848 297.0
43.7516 320.0
43.8184 331.0
43.8853 321.0
43.9521 300.0
44.019 284.0
44.0858 293.0
44.1527 289.0
44.2195 277.0
44.2864 278.0
44.3532 295.0
44.4201 280.0
44.4869 276.0
44.5537 290.0
44.6206 251.0
44.6874 252.0
44.7543 225.0
44.8211 244.0
44.888 258.0
44.9548 233.0
45.0217 235.0
45.0885 239.0
45.1553 257.0
45.2222 236.0
45.289 239.0
45.3559 212.0
45.4227 192.0
45.4896 182.0
45.5564 176.0
45.6233 224.0
45.6901 189.0
45.757 184.0
45.8238 206.0
45.8906 238.0
45.9575 220.0
46.0243 197.0
46.0912 194.0
46.158 227.0
46.2249 229.0
46.2917 238.0
46.3586 230.0
46.4254 253.0
46.4922 255.0
46.5591 263.0
46.6259 317.0
46.6928 292.0
46.7596 259.0
46.8265 282.0
46.8933 290.0
46.9602 272.0
47.027 259.0
47.0939 259.0
47.1607 294.0
47.2275 278.0
47.2944 313.0
47.3612 295.0
47.4281 323.0
47.4949 401.0
47.5618 376.0
47.6286 354.0
47.6955 335.0
47.7623 252.0
47.8291 289.0
47.896 264.0
47.9628 241.0
48.0297 231.0
48.0965 266.0
48.1634 260.0
48.2302 276.0
48.2971 227.0
48.3639 269.0
48.4308 295.0
48.4976 276.0
48.5644 336.0
48.6313 450.0
48.6981 603.0
48.765 736.0
48.8318 885.0
48.8987 1122.0
48.9655 998.0
49.0324 781.0
49.0992 582.0
49.1661 406.0
49.2329 386.0
49.2997 362.0
49.3666 352.0
49.4334 355.0
49.5003 384.0
49.5671 351.0
49.634 366.0
49.7008 364.0
49.7677 335.0
49.8345 382.0
49.9013 430.0
49.9682 451.0
50.035 503.0
50.1019 509.0
50.1687 447.0
50.2356 393.0
50.3024 372.0
50.3693 347.0
50.4361 326.0
50.503 338.0
50.5698 375.0
50.6366 420.0
50.7035 394.0
50.7703 511.0
50.8372 513.0
50.904 554.0
50.9709 575.0
51.0377 447.0
51.1046 396.0
51.1714 335.0
51.2382 364.0
51.3051 358.0
51.3719 389.0
51.4388 339.0
51.5056 350.0
51.5725 340.0
51.6393 320.0
51.7062 317.0
51.773 278.0
51.8399 252.0
51.9067 292.0
51.9735 270.0
52.0404 279.0
52.1072 257.0
52.1741 259.0
52.2409 263.0
52.3078 257.0
52.3746 277.0
52.4415 278.0
52.5083 255.0
52.5751 259.0
52.642 255.0
52.7088 267.0
52.7757 261.0
52.8425 260.0
52.9094 348.0
52.9762 529.0
53.0431 550.0
53.1099 493.0
53.1768 444.0
53.2436 355.0
53.3104 306.0
53.3773 294.0
53.4441 277.0
53.511 278.0
53.5778 299.0
53.6447 293.0
53.7115 336.0
53.7784 319.0
53.8452 285.0
53.9121 263.0
53.9789 243.0
54.0457 266.0
54.1126 280.0
54.1794 311.0
54.2463 311.0
54.3131 342.0
54.38 370.0
54.4468 399.0
54.5137 361.0
54.5805 308.0
54.6473 306.0
54.7142 284.0
54.781 274.0
54.8479 295.0
54.9147 318.0
54.9816 357.0
55.0484 358.0
55.1153 389.0
55.1821 387.0
55.249 353.0
55.3158 397.0
55.3826 370.0
55.4495 407.0
55.5163 416.0
55.5832 448.0
55.65 441.0
55.7169 459.0
55.7837 378.0
55.8506 426.0
55.9174 388.0
55.9842 358.0
56.0511 400.0
56.1179 381.0
56.1848 369.0
56.2516 330.0
56.3185 332.0
56.3853 318.0
56.4522 243.0
56.519 229.0
56.5859 230.0
56.6527 251.0
56.7195 244.0
56.7864 208.0
56.8532 263.0
56.9201 247.0
56.9869 272.0
57.0538 236.0
57.1206 217.0
57.1875 257.0
57.2543 228.0
57.3212 183.0
57.388 225.0
57.4548 233.0
57.5217 229.0
57.5885 222.0
57.6554 205.0
57.7222 194.0
57.7891 198.0
57.8559 208.0
57.9228 208.0
57.9896 189.0
58.0564 178.0
58.1233 201.0
58.1901 220.0
58.257 204.0
58.3238 229.0
58.3907 194.0
58.4575 225.0
58.5244 228.0
58.5912 209.0
58.6581 233.0
58.7249 222.0
58.7917 225.0
58.8586 192.0
58.9254 200.0
58.9923 203.0
59.0591 214.0
59.126 225.0
59.1928 243.0
59.2597 309.0
59.3265 355.0
59.3933 394.0
59.4602 376.0
59.527 372.0
59.5939 335.0
59.6607 303.0
59.7276 275.0
59.7944 245.0
59.8613 270.0
59.9281 227.0
59.995 215.0
60.0618 244.0
60.1286 224.0
60.1955 241.0
60.2623 256.0
60.3292 242.0
60.396 236.0
60.4629 261.0
60.5297 280.0
60.5966 268.0
60.6634 288.0
60.7302 322.0
60.7971 368.0
60.8639 336.0
60.9308 317.0
60.9976 311.0
61.0645 323.0
61.1313 341.0
61.1982 360.0
61.265 345.0
61.3319 377.0
61.3987 348.0
61.4655 307.0
61.5324 268.0
61.5992 236.0
61.6661 212.0
61.7329 256.0
61.7998 225.0
61.8666 237.0
61.9335 231.0
62.0003 255.0
62.0672 238.0
62.134 262.0
62.2008 273.0
62.2677 263.0
62.3345 254.0
62.4014 283.0
62.4682 260.0
62.5351 250.0
62.6019 272.0
62.6688 248.0
62.7356 245.0
62.8024 219.0
62.8693 247.0
62.9361 224.0
63.003 263.0
63.0698 267.0
63.1367 235.0
63.2035 286.0
63.2704 226.0
63.3372 271.0
63.4041 263.0
63.4709 239.0
63.5377 227.0
63.6046 242.0
63.6714 217.0
63.7383 198.0
63.8051 195.0
63.872 199.0
63.9388 223.0
64.0057 204.0
64.0725 227.0
64.1393 221.0
64.2062 212.0
64.273 230.0
64.3399 238.0
64.4067 228.0
64.4736 213.0
64.5404 226.0
64.6073 235.0
64.6741 260.0
64.741 241.0
64.8078 251.0
64.8746 211.0
64.9415 220.0
65.0083 199.0
65.0752 206.0
65.142 210.0
65.2089 222.0
65.2757 221.0
65.3426 243.0
65.4094 223.0
65.4762 259.0
65.5431 260.0
65.6099 228.0
65.6768 250.0
65.7436 261.0
65.8105 244.0
65.8773 287.0
65.9442 291.0
66.011 305.0
66.0779 319.0
66.1447 310.0
66.2115 318.0
66.2784 329.0
66.3452 344.0
66.4121 369.0
66.4789 369.0
66.5458 395.0
66.6126 401.0
66.6795 418.0
66.7463 444.0
66.8132 394.0
66.88 373.0
66.9468 373.0
67.0137 354.0
67.0805 372.0
67.1474 306.0
67.2142 316.0
67.2811 284.0
67.3479 291.0
67.4148 262.0
67.4816 256.0
67.5484 254.0
67.6153 260.0
67.6821 260.0
67.749 244.0
67.8158 221.0
67.8827 221.0
67.9495 214.0
68.0164 216.0
68.0832 205.0
68.1501 224.0
68.2169 225.0
68.2837 236.0
68.3506 219.0
68.4174 216.0
68.4843 233.0
68.5511 210.0
68.618 214.0
68.6848 203.0
68.7517 245.0
68.8185 233.0
68.8853 246.0
68.9522 244.0
69.019 256.0
69.0859 294.0
69.1527 270.0
69.2196 257.0
69.2864 254.0
69.3533 258.0
69.4201 256.0
69.487 274.0
69.5538 286.0
69.6206 314.0
69.6875 300.0
69.7543 310.0
69.8212 341.0
69.888 339.0
69.9549 394.0
70.0217 383.0
70.0886 344.0
70.1554 361.0
70.2222 334.0
70.2891 377.0
70.3559 375.0
70.4228 380.0
70.4896 383.0
70.5565 378.0
70.6233 400.0
70.6902 368.0
70.757 354.0
70.8239 332.0
70.8907 303.0
70.9575 323.0
71.0244 297.0
71.0912 315.0
71.1581 323.0
71.2249 293.0
71.2918 324.0
71.3586 286.0
71.4255 287.0
71.4923 282.0
71.5592 244.0
71.626 275.0
71.6928 253.0
71.7597 225.0
71.8265 238.0
71.8934 242.0
71.9602 289.0
72.0271 266.0
72.0939 300.0
72.1608 310.0
72.2276 289.0
72.2944 291.0
72.3613 294.0
72.4281 273.0
72.495 225.0
72.5618 248.0
72.6287 241.0
72.6955 246.0
72.7624 258.0
72.8292 254.0
72.8961 233.0
72.9629 252.0
73.0297 232.0
73.0966 211.0
73.1634 222.0
73.2303 186.0
73.2971 212.0
73.364 154.0
73.4308 184.0
73.4977 196.0
73.5645 230.0
73.6313 205.0
73.6982 178.0
73.765 232.0
73.8319 237.0
73.8987 221.0
73.9656 228.0
74.0324 205.0
74.0993 227.0
74.1661 205.0
74.233 235.0
74.2998 207.0
74.3666 257.0
74.4335 205.0
74.5003 226.0
74.5672 194.0
74.634 214.0
74.7009 242.0
74.7677 223.0
74.8346 226.0
74.9014 233.0
74.9683 232.0
75.0351 264.0
75.1019 232.0
75.1688 287.0
75.2356 247.0
75.3025 229.0
75.3693 250.0
75.4362 222.0
75.503 227.0
75.5699 217.0
75.6367 225.0
75.7035 225.0
75.7704 224.0
75.8372 211.0
75.9041 232.0
75.9709 219.0
76.0378 228.0
76.1046 230.0
76.1715 212.0
76.2383 185.0
76.3052 222.0
76.372 231.0
76.4388 169.0
76.5057 167.0
76.5725 213.0
76.6394 185.0
76.7062 180.0
76.7731 166.0
76.8399 220.0
76.9068 181.0
76.9736 214.0
77.0404 197.0
77.1073 190.0
77.1741 222.0
77.241 211.0
77.3078 217.0
77.3747 208.0
77.4415 213.0
77.5084 203.0
77.5752 177.0
77.6421 209.0
77.7089 159.0
77.7757 204.0
77.8426 181.0
77.9094 198.0
77.9763 182.0
78.0431 190.0
78.11 182.0
78.1768 175.0
78.2437 197.0
78.3105 210.0
78.3773 199.0
78.4442 173.0
78.511 178.0
78.5779 170.0
78.6447 194.0
78.7116 146.0
78.7784 184.0
78.8453 177.0
78.9121 173.0
78.979 195.0
79.0458 185.0
79.1126 160.0
79.1795 184.0
79.2463 168.0
79.3132 179.0
79.38 185.0
79.4469 193.0
79.5137 153.0
79.5806 170.0
79.6474 201.0
79.7143 182.0
79.7811 200.0
79.8479 172.0
79.9148 164.0
79.9816 193.0
80.0485 179.0
80.1153 189.0
80.1822 181.0
80.249 179.0
80.3159 193.0
80.3827 227.0
80.4495 198.0
80.5164 243.0
80.5832 241.0
80.6501 235.0
80.7169 208.0
80.7838 203.0
80.8506 190.0
80.9175 214.0
80.9843 195.0
81.0512 203.0
81.118 183.0
81.1848 178.0
81.2517 165.0
81.3185 178.0
81.3854 180.0
81.4522 164.0
81.5191 179.0
81.5859 184.0
81.6528 178.0
81.7196 179.0
81.7864 178.0
81.8533 183.0
81.9201 182.0
81.987 176.0
82.0538 162.0
82.1207 188.0
82.1875 190.0
82.2544 147.0
82.3212 166.0
82.3881 162.0
82.4549 163.0
82.5217 185.0
82.5886 173.0
82.6554 178.0
82.7223 181.0
82.7891 165.0
82.856 178.0
82.9228 177.0
82.9897 177.0
83.0565 205.0
83.1233 184.0
83.1902 167.0
83.257 176.0
83.3239 196.0
83.3907 148.0
83.4576 135.0
83.5244 148.0
83.5913 175.0
83.6581 145.0
83.725 163.0
83.7918 190.0
83.8586 169.0
83.9255 189.0
83.9923 165.0
84.0592 169.0
84.126 179.0
84.1929 166.0
84.2597 168.0
84.3266 157.0
84.3934 151.0
84.4603 157.0
84.5271 155.0
84.5939 188.0
84.6608 160.0
84.7276 173.0
84.7945 157.0
84.8613 138.0
84.9282 159.0
84.995 146.0
85.0619 145.0
85.1287 129.0
85.1955 141.0
85.2624 148.0
85.3292 138.0
85.3961 130.0
85.4629 126.0
85.5298 129.0
85.5966 142.0
85.6635 139.0
85.7303 121.0
85.7972 141.0
85.864 145.0
85.9308 151.0
85.9977 146.0
86.0645 128.0
86.1314 150.0
86.1982 145.0
86.2651 144.0
86.3319 118.0
86.3988 125.0
86.4656 144.0
86.5324 143.0
86.5993 148.0
86.6661 145.0
86.733 133.0
86.7998 146.0
86.8667 127.0
86.9335 130.0
87.0004 155.0
87.0672 157.0
87.1341 137.0
87.2009 141.0
87.2677 165.0
87.3346 144.0
87.4014 135.0
87.4683 126.0
87.5351 151.0
87.602 147.0
87.6688 141.0
87.7357 147.0
87.8025 146.0
87.8693 146.0
87.9362 132.0
88.003 165.0
88.0699 151.0
88.1367 139.0
88.2036 126.0
88.2704 146.0
88.3373 127.0
88.4041 148.0
88.471 110.0
88.5378 138.0
88.6046 130.0
88.6715 115.0
88.7383 135.0
88.8052 142.0
88.872 130.0
88.9389 123.0
89.0057 142.0
89.0726 157.0
89.1394 107.0
89.2063 141.0
89.2731 121.0
89.3399 116.0
89.4068 137.0
89.4736 142.0
89.5405 130.0
89.6073 110.0
89.6742 115.0
89.741 136.0
89.8079 116.0
89.8747 120.0
89.9415 123.0