File: code/XRD_Analysis/Zeolites/data_files/SAPO-34/assynth/20241028_SAPO-34-1-assynth-Probe-2.xy
4.98146 985.0
5.0483 938.0
5.11515 976.0
5.18199 954.0
5.24884 955.0
5.31568 945.0
5.38253 941.0
5.44937 940.0
5.51622 849.0
5.58306 880.0
5.64991 852.0
5.71675 830.0
5.7836 872.0
5.85044 852.0
5.91729 808.0
5.98413 830.0
6.05098 773.0
6.11782 763.0
6.18467 802.0
6.25151 756.0
6.31836 766.0
6.3852 767.0
6.45205 761.0
6.51889 785.0
6.58574 761.0
6.65258 701.0
6.71943 693.0
6.78627 759.0
6.85312 703.0
6.91996 734.0
6.98681 719.0
7.05365 693.0
7.1205 673.0
7.18734 693.0
7.25419 728.0
7.32103 667.0
7.38788 678.0
7.45472 661.0
7.52157 678.0
7.58841 652.0
7.65526 680.0
7.7221 623.0
7.78895 605.0
7.85579 642.0
7.92264 600.0
7.98948 619.0
8.05633 644.0
8.12317 617.0
8.19002 661.0
8.25686 614.0
8.32371 598.0
8.39055 636.0
8.4574 603.0
8.52424 618.0
8.59109 603.0
8.65793 644.0
8.72478 588.0
8.79162 610.0
8.85847 603.0
8.92532 639.0
8.99216 620.0
9.05901 716.0
9.12585 776.0
9.1927 851.0
9.25954 1034.0
9.32639 1864.0
9.39323 4938.0
9.46008 14846.0
9.52692 17138.0
9.59377 4264.0
9.66061 1410.0
9.72746 1083.0
9.7943 972.0
9.86115 883.0
9.92799 786.0
9.99484 730.0
10.0617 725.0
10.1285 666.0
10.1954 642.0
10.2622 658.0
10.3291 673.0
10.3959 679.0
10.4628 646.0
10.5296 619.0
10.5964 601.0
10.6633 616.0
10.7301 601.0
10.797 600.0
10.8638 621.0
10.9307 609.0
10.9975 590.0
11.0644 619.0
11.1312 617.0
11.198 579.0
11.2649 601.0
11.3317 573.0
11.3986 595.0
11.4654 551.0
11.5323 583.0
11.5991 581.0
11.666 541.0
11.7328 625.0
11.7997 598.0
11.8665 588.0
11.9333 573.0
12.0002 603.0
12.067 592.0
12.1339 572.0
12.2007 591.0
12.2676 572.0
12.3344 644.0
12.4013 601.0
12.4681 636.0
12.5349 657.0
12.6018 623.0
12.6686 720.0
12.7355 1127.0
12.8023 2615.0
12.8692 2912.0
12.936 1044.0
13.0029 653.0
13.0697 648.0
13.1366 635.0
13.2034 627.0
13.2702 574.0
13.3371 571.0
13.4039 604.0
13.4708 506.0
13.5376 520.0
13.6045 520.0
13.6713 489.0
13.7382 522.0
13.805 535.0
13.8719 656.0
13.9387 1045.0
14.0055 1353.0
14.0724 1151.0
14.1392 817.0
14.2061 753.0
14.2729 691.0
14.3398 708.0
14.4066 670.0
14.4735 730.0
14.5403 716.0
14.6071 723.0
14.674 762.0
14.7408 735.0
14.8077 688.0
14.8745 699.0
14.9414 668.0
15.0082 686.0
15.0751 704.0
15.1419 793.0
15.2088 753.0
15.2756 742.0
15.3424 752.0
15.4093 744.0
15.4761 829.0
15.543 732.0
15.6098 846.0
15.6767 836.0
15.7435 815.0
15.8104 1005.0
15.8772 1705.0
15.944 5625.0
16.0109 9428.0
16.0777 3626.0
16.1446 1278.0
16.2114 1019.0
16.2783 965.0
16.3451 990.0
16.412 980.0
16.4788 1040.0
16.5457 1068.0
16.6125 1164.0
16.6793 1183.0
16.7462 1266.0
16.813 1320.0
16.8799 1337.0
16.9467 1330.0
17.0136 1350.0
17.0804 1269.0
17.1473 1301.0
17.2141 1246.0
17.2809 1325.0
17.3478 1234.0
17.4146 1194.0
17.4815 1110.0
17.5483 1066.0
17.6152 1020.0
17.682 1057.0
17.7489 1103.0
17.8157 1329.0
17.8826 1674.0
17.9494 1720.0
18.0162 1273.0
18.0831 1007.0
18.1499 903.0
18.2168 904.0
18.2836 834.0
18.3505 911.0
18.4173 875.0
18.4842 912.0
18.551 896.0
18.6179 876.0
18.6847 809.0
18.7515 840.0
18.8184 818.0
18.8852 900.0
18.9521 1203.0
19.0189 1314.0
19.0858 1125.0
19.1526 959.0
19.2195 942.0
19.2863 919.0
19.3531 947.0
19.42 977.0
19.4868 1054.0
19.5537 1089.0
19.6205 1146.0
19.6874 1255.0
19.7542 1261.0
19.8211 1308.0
19.8879 1322.0
19.9548 1377.0
20.0216 1415.0
20.0884 1493.0
20.1553 1542.0
20.2221 1601.0
20.289 1622.0
20.3558 1856.0
20.4227 2969.0
20.4895 8692.0
20.5564 14531.0
20.6232 8401.0
20.69 3283.0
20.7569 2281.0
20.8237 2093.0
20.8906 1880.0
20.9574 1916.0
21.0243 1882.0
21.0911 1942.0
21.158 1914.0
21.2248 1869.0
21.2917 1860.0
21.3585 1697.0
21.4253 1406.0
21.4922 1060.0
21.559 829.0
21.6259 745.0
21.6927 642.0
21.7596 551.0
21.8264 592.0
21.8933 641.0
21.9601 773.0
22.0269 901.0
22.0938 926.0
22.1606 798.0
22.2275 736.0
22.2943 750.0
22.3612 720.0
22.428 663.0
22.4949 696.0
22.5617 670.0
22.6286 692.0
22.6954 710.0
22.7622 724.0
22.8291 715.0
22.8959 785.0
22.9628 924.0
23.0296 1526.0
23.0965 1673.0
23.1633 1109.0
23.2302 803.0
23.297 815.0
23.3639 826.0
23.4307 839.0
23.4975 838.0
23.5644 856.0
23.6312 937.0
23.6981 917.0
23.7649 943.0
23.8318 973.0
23.8986 1059.0
23.9655 977.0
24.0323 1042.0
24.0991 1048.0
24.166 1003.0
24.2328 1065.0
24.2997 1079.0
24.3665 1120.0
24.4334 1055.0
24.5002 1134.0
24.5671 1134.0
24.6339 1137.0
24.7008 1179.0
24.7676 1200.0
24.8344 1177.0
24.9013 1248.0
24.9681 1432.0
25.035 1812.0
25.1018 2238.0
25.1687 2080.0
25.2355 1672.0
25.3024 1421.0
25.3692 1246.0
25.436 1182.0
25.5029 1142.0
25.5697 1168.0
25.6366 1227.0
25.7034 1479.0
25.7703 2522.0
25.8371 3601.0
25.904 2446.0
25.9708 1444.0
26.0377 1090.0
26.1045 1071.0
26.1713 1045.0
26.2382 985.0
26.305 958.0
26.3719 935.0
26.4387 889.0
26.5056 870.0
26.5724 888.0
26.6393 803.0
26.7061 812.0
26.773 778.0
26.8398 728.0
26.9066 684.0
26.9735 700.0
27.0403 675.0
27.1072 639.0
27.174 622.0
27.2409 607.0
27.3077 581.0
27.3746 549.0
27.4414 634.0
27.5082 867.0
27.5751 1192.0
27.6419 947.0
27.7088 715.0
27.7756 646.0
27.8425 566.0
27.9093 586.0
27.9762 579.0
28.043 673.0
28.1099 823.0
28.1767 866.0
28.2435 896.0
28.3104 850.0
28.3772 769.0
28.4441 680.0
28.5109 566.0
28.5778 572.0
28.6446 592.0
28.7115 560.0
28.7783 574.0
28.8451 581.0
28.912 592.0
28.9788 610.0
29.0457 556.0
29.1125 563.0
29.1794 637.0
29.2462 597.0
29.3131 713.0
29.3799 751.0
29.4468 1266.0
29.5136 1330.0
29.5804 1076.0
29.6473 802.0
29.7141 822.0
29.781 885.0
29.8478 986.0
29.9147 1065.0
29.9815 1130.0
30.0484 1220.0
30.1152 1350.0
30.182 1500.0
30.2489 1761.0
30.3157 1804.0
30.3826 2024.0
30.4494 2631.0
30.5163 3265.0
30.5831 3037.0
30.65 2480.0
30.7168 2085.0
30.7837 1954.0
30.8505 2119.0
30.9173 2272.0
30.9842 2628.0
31.051 2847.0
31.1179 2806.0
31.1847 2653.0
31.2516 2260.0
31.3184 1707.0
31.3853 1396.0
31.4521 1105.0
31.519 1087.0
31.5858 1199.0
31.6526 1214.0
31.7195 1101.0
31.7863 956.0
31.8532 833.0
31.92 903.0
31.9869 847.0
32.0537 815.0
32.1206 869.0
32.1874 867.0
32.2542 932.0
32.3211 1072.0
32.3879 917.0
32.4548 754.0
32.5216 680.0
32.5885 652.0
32.6553 627.0
32.7222 580.0
32.789 634.0
32.8559 556.0
32.9227 574.0
32.9895 576.0
33.0564 504.0
33.1232 587.0
33.1901 600.0
33.2569 647.0
33.3238 592.0
33.3906 565.0
33.4575 547.0
33.5243 540.0
33.5911 580.0
33.658 586.0
33.7248 576.0
33.7917 555.0
33.8585 563.0
33.9254 555.0
33.9922 568.0
34.0591 552.0
34.1259 569.0
34.1928 555.0
34.2596 625.0
34.3264 711.0
34.3933 820.0
34.4601 779.0
34.527 708.0
34.5938 571.0
34.6607 501.0
34.7275 428.0
34.7944 416.0
34.8612 416.0
34.928 489.0
34.9949 410.0
35.0617 398.0
35.1286 399.0
35.1954 397.0
35.2623 424.0
35.3291 389.0
35.396 414.0
35.4628 388.0
35.5297 412.0
35.5965 347.0
35.6633 392.0
35.7302 381.0
35.797 365.0
35.8639 434.0
35.9307 458.0
35.9976 504.0
36.0644 537.0
36.1313 582.0
36.1981 641.0
36.265 617.0
36.3318 508.0
36.3986 462.0
36.4655 352.0
36.5323 356.0
36.5992 290.0
36.666 323.0
36.7329 336.0
36.7997 331.0
36.8666 324.0
36.9334 340.0
37.0002 298.0
37.0671 320.0
37.1339 348.0
37.2008 347.0
37.2676 354.0
37.3345 289.0
37.4013 333.0
37.4682 378.0
37.535 341.0
37.6019 337.0
37.6687 354.0
37.7355 342.0
37.8024 334.0
37.8692 361.0
37.9361 394.0
38.0029 403.0
38.0698 393.0
38.1366 425.0
38.2035 477.0
38.2703 447.0
38.3371 465.0
38.404 417.0
38.4708 424.0
38.5377 475.0
38.6045 487.0
38.6714 563.0
38.7382 495.0
38.8051 532.0
38.8719 424.0
38.9388 526.0
39.0056 494.0
39.0724 467.0
39.1393 467.0
39.2061 439.0
39.273 441.0
39.3398 450.0
39.4067 465.0
39.4735 491.0
39.5404 504.0
39.6072 569.0
39.6741 532.0
39.7409 471.0
39.8077 438.0
39.8746 385.0
39.9414 339.0
40.0083 397.0
40.0751 340.0
40.142 337.0
40.2088 291.0
40.2757 339.0
40.3425 314.0
40.4093 286.0
40.4762 321.0
40.543 316.0
40.6099 310.0
40.6767 355.0
40.7436 276.0
40.8104 300.0
40.8773 294.0
40.9441 329.0
41.011 290.0
41.0778 289.0
41.1446 310.0
41.2115 313.0
41.2783 310.0
41.3452 300.0
41.412 288.0
41.4789 297.0
41.5457 321.0
41.6126 297.0
41.6794 291.0
41.7462 365.0
41.8131 364.0
41.8799 332.0
41.9468 305.0
42.0136 329.0
42.0805 305.0
42.1473 278.0
42.2142 311.0
42.281 260.0
42.3479 275.0
42.4147 307.0
42.4815 310.0
42.5484 323.0
42.6152 276.0
42.6821 318.0
42.7489 325.0
42.8158 344.0
42.8826 399.0
42.9495 517.0
43.0163 584.0
43.0831 573.0
43.15 594.0
43.2168 643.0
43.2837 614.0
43.3505 632.0
43.4174 503.0
43.4842 503.0
43.5511 395.0
43.6179 414.0
43.6848 370.0
43.7516 362.0
43.8184 363.0
43.8853 334.0
43.9521 384.0
44.019 333.0
44.0858 346.0
44.1527 311.0
44.2195 299.0
44.2864 310.0
44.3532 311.0
44.4201 323.0
44.4869 294.0
44.5537 306.0
44.6206 285.0
44.6874 282.0
44.7543 258.0
44.8211 259.0
44.888 277.0
44.9548 284.0
45.0217 277.0
45.0885 286.0
45.1553 253.0
45.2222 237.0
45.289 270.0
45.3559 258.0
45.4227 271.0
45.4896 248.0
45.5564 244.0
45.6233 258.0
45.6901 254.0
45.757 237.0
45.8238 238.0
45.8906 243.0
45.9575 248.0
46.0243 256.0
46.0912 238.0
46.158 238.0
46.2249 256.0
46.2917 255.0
46.3586 256.0
46.4254 306.0
46.4922 244.0
46.5591 294.0
46.6259 352.0
46.6928 323.0
46.7596 303.0
46.8265 326.0
46.8933 307.0
46.9602 282.0
47.027 280.0
47.0939 303.0
47.1607 358.0
47.2275 346.0
47.2944 330.0
47.3612 349.0
47.4281 387.0
47.4949 442.0
47.5618 464.0
47.6286 475.0
47.6955 461.0
47.7623 361.0
47.8291 358.0
47.896 309.0
47.9628 310.0
48.0297 330.0
48.0965 321.0
48.1634 288.0
48.2302 332.0
48.2971 321.0
48.3639 349.0
48.4308 342.0
48.4976 369.0
48.5644 375.0
48.6313 460.0
48.6981 542.0
48.765 659.0
48.8318 844.0
48.8987 1120.0
48.9655 1383.0
49.0324 1091.0
49.0992 855.0
49.1661 591.0
49.2329 493.0
49.2997 429.0
49.3666 433.0
49.4334 412.0
49.5003 456.0
49.5671 413.0
49.634 445.0
49.7008 464.0
49.7677 427.0
49.8345 422.0
49.9013 451.0
49.9682 463.0
50.035 510.0
50.1019 550.0
50.1687 524.0
50.2356 511.0
50.3024 446.0
50.3693 410.0
50.4361 409.0
50.503 412.0
50.5698 401.0
50.6366 400.0
50.7035 408.0
50.7703 524.0
50.8372 622.0
50.904 606.0
50.9709 570.0
51.0377 569.0
51.1046 459.0
51.1714 453.0
51.2382 423.0
51.3051 387.0
51.3719 441.0
51.4388 402.0
51.5056 389.0
51.5725 410.0
51.6393 355.0
51.7062 368.0
51.773 346.0
51.8399 317.0
51.9067 308.0
51.9735 303.0
52.0404 307.0
52.1072 311.0
52.1741 310.0
52.2409 310.0
52.3078 302.0
52.3746 318.0
52.4415 274.0
52.5083 331.0
52.5751 313.0
52.642 285.0
52.7088 309.0
52.7757 292.0
52.8425 319.0
52.9094 335.0
52.9762 418.0
53.0431 612.0
53.1099 580.0
53.1768 537.0
53.2436 545.0
53.3104 382.0
53.3773 406.0
53.4441 322.0
53.511 344.0
53.5778 317.0
53.6447 330.0
53.7115 424.0
53.7784 353.0
53.8452 353.0
53.9121 358.0
53.9789 329.0
54.0457 354.0
54.1126 328.0
54.1794 275.0
54.2463 323.0
54.3131 345.0
54.38 356.0
54.4468 428.0
54.5137 409.0
54.5805 372.0
54.6473 365.0
54.7142 289.0
54.781 297.0
54.8479 308.0
54.9147 306.0
54.9816 328.0
55.0484 329.0
55.1153 355.0
55.1821 367.0
55.249 369.0
55.3158 401.0
55.3826 408.0
55.4495 453.0
55.5163 483.0
55.5832 442.0
55.65 466.0
55.7169 464.0
55.7837 464.0
55.8506 504.0
55.9174 429.0
55.9842 423.0
56.0511 396.0
56.1179 379.0
56.1848 391.0
56.2516 424.0
56.3185 422.0
56.3853 350.0
56.4522 272.0
56.519 306.0
56.5859 263.0
56.6527 233.0
56.7195 286.0
56.7864 264.0
56.8532 270.0
56.9201 282.0
56.9869 268.0
57.0538 260.0
57.1206 294.0
57.1875 242.0
57.2543 251.0
57.3212 268.0
57.388 235.0
57.4548 241.0
57.5217 251.0
57.5885 242.0
57.6554 228.0
57.7222 217.0
57.7891 242.0
57.8559 212.0
57.9228 244.0
57.9896 219.0
58.0564 223.0
58.1233 205.0
58.1901 216.0
58.257 215.0
58.3238 233.0
58.3907 211.0
58.4575 246.0
58.5244 239.0
58.5912 239.0
58.6581 239.0
58.7249 228.0
58.7917 216.0
58.8586 238.0
58.9254 235.0
58.9923 230.0
59.0591 195.0
59.126 222.0
59.1928 251.0
59.2597 294.0
59.3265 330.0
59.3933 368.0
59.4602 381.0
59.527 464.0
59.5939 353.0
59.6607 351.0
59.7276 298.0
59.7944 290.0
59.8613 245.0
59.9281 291.0
59.995 262.0
60.0618 253.0
60.1286 236.0
60.1955 259.0
60.2623 292.0
60.3292 257.0
60.396 300.0
60.4629 247.0
60.5297 258.0
60.5966 285.0
60.6634 275.0
60.7302 331.0
60.7971 416.0
60.8639 427.0
60.9308 322.0
60.9976 314.0
61.0645 315.0
61.1313 339.0
61.1982 363.0
61.265 436.0
61.3319 385.0
61.3987 394.0
61.4655 358.0
61.5324 340.0
61.5992 317.0
61.6661 270.0
61.7329 267.0
61.7998 253.0
61.8666 286.0
61.9335 272.0
62.0003 283.0
62.0672 274.0
62.134 286.0
62.2008 314.0
62.2677 305.0
62.3345 321.0
62.4014 314.0
62.4682 298.0
62.5351 328.0
62.6019 292.0
62.6688 299.0
62.7356 314.0
62.8024 239.0
62.8693 272.0
62.9361 272.0
63.003 292.0
63.0698 302.0
63.1367 291.0
63.2035 334.0
63.2704 323.0
63.3372 301.0
63.4041 302.0
63.4709 278.0
63.5377 304.0
63.6046 288.0
63.6714 260.0
63.7383 261.0
63.8051 253.0
63.872 268.0
63.9388 269.0
64.0057 284.0
64.0725 266.0
64.1393 256.0
64.2062 257.0
64.273 269.0
64.3399 263.0
64.4067 280.0
64.4736 269.0
64.5404 277.0
64.6073 309.0
64.6741 289.0
64.741 278.0
64.8078 273.0
64.8746 293.0
64.9415 295.0
65.0083 292.0
65.0752 239.0
65.142 247.0
65.2089 274.0
65.2757 236.0
65.3426 238.0
65.4094 268.0
65.4762 223.0
65.5431 226.0
65.6099 244.0
65.6768 257.0
65.7436 263.0
65.8105 279.0
65.8773 268.0
65.9442 355.0
66.011 367.0
66.0779 358.0
66.1447 396.0
66.2115 392.0
66.2784 345.0
66.3452 370.0
66.4121 394.0
66.4789 398.0
66.5458 393.0
66.6126 410.0
66.6795 439.0
66.7463 412.0
66.8132 462.0
66.88 428.0
66.9468 407.0
67.0137 383.0
67.0805 396.0
67.1474 378.0
67.2142 384.0
67.2811 378.0
67.3479 335.0
67.4148 345.0
67.4816 361.0
67.5484 290.0
67.6153 280.0
67.6821 252.0
67.749 288.0
67.8158 295.0
67.8827 269.0
67.9495 261.0
68.0164 283.0
68.0832 254.0
68.1501 248.0
68.2169 258.0
68.2837 227.0
68.3506 252.0
68.4174 237.0
68.4843 259.0
68.5511 255.0
68.618 283.0
68.6848 229.0
68.7517 244.0
68.8185 221.0
68.8853 235.0
68.9522 302.0
69.019 276.0
69.0859 295.0
69.1527 309.0
69.2196 306.0
69.2864 316.0
69.3533 307.0
69.4201 260.0
69.487 329.0
69.5538 268.0
69.6206 309.0
69.6875 294.0
69.7543 328.0
69.8212 333.0
69.888 368.0
69.9549 385.0
70.0217 400.0
70.0886 391.0
70.1554 401.0
70.2222 378.0
70.2891 385.0
70.3559 393.0
70.4228 423.0
70.4896 406.0
70.5565 417.0
70.6233 391.0
70.6902 400.0
70.757 377.0
70.8239 395.0
70.8907 375.0
70.9575 388.0
71.0244 350.0
71.0912 320.0
71.1581 382.0
71.2249 344.0
71.2918 357.0
71.3586 350.0
71.4255 306.0
71.4923 323.0
71.5592 335.0
71.626 304.0
71.6928 316.0
71.7597 267.0
71.8265 284.0
71.8934 274.0
71.9602 314.0
72.0271 299.0
72.0939 329.0
72.1608 318.0
72.2276 321.0
72.2944 295.0
72.3613 358.0
72.4281 303.0
72.495 313.0
72.5618 271.0
72.6287 308.0
72.6955 304.0
72.7624 271.0
72.8292 260.0
72.8961 256.0
72.9629 267.0
73.0297 251.0
73.0966 230.0
73.1634 225.0
73.2303 225.0
73.2971 236.0
73.364 235.0
73.4308 226.0
73.4977 183.0
73.5645 201.0
73.6313 214.0
73.6982 230.0
73.765 284.0
73.8319 251.0
73.8987 257.0
73.9656 217.0
74.0324 259.0
74.0993 278.0
74.1661 256.0
74.233 237.0
74.2998 228.0
74.3666 230.0
74.4335 233.0
74.5003 277.0
74.5672 253.0
74.634 229.0
74.7009 243.0
74.7677 217.0
74.8346 251.0
74.9014 244.0
74.9683 279.0
75.0351 310.0
75.1019 244.0
75.1688 298.0
75.2356 271.0
75.3025 277.0
75.3693 268.0
75.4362 239.0
75.503 260.0
75.5699 222.0
75.6367 253.0
75.7035 259.0
75.7704 266.0
75.8372 253.0
75.9041 243.0
75.9709 232.0
76.0378 273.0
76.1046 240.0
76.1715 228.0
76.2383 232.0
76.3052 232.0
76.372 214.0
76.4388 198.0
76.5057 198.0
76.5725 193.0
76.6394 208.0
76.7062 190.0
76.7731 223.0
76.8399 214.0
76.9068 214.0
76.9736 240.0
77.0404 233.0
77.1073 230.0
77.1741 241.0
77.241 198.0
77.3078 252.0
77.3747 229.0
77.4415 236.0
77.5084 233.0
77.5752 200.0
77.6421 207.0
77.7089 193.0
77.7757 212.0
77.8426 238.0
77.9094 208.0
77.9763 222.0
78.0431 222.0
78.11 212.0
78.1768 200.0
78.2437 225.0
78.3105 203.0
78.3773 186.0
78.4442 178.0
78.511 182.0
78.5779 192.0
78.6447 193.0
78.7116 178.0
78.7784 194.0
78.8453 197.0
78.9121 186.0
78.979 201.0
79.0458 216.0
79.1126 208.0
79.1795 186.0
79.2463 203.0
79.3132 192.0
79.38 190.0
79.4469 196.0
79.5137 208.0
79.5806 230.0
79.6474 179.0
79.7143 256.0
79.7811 226.0
79.8479 188.0
79.9148 197.0
79.9816 208.0
80.0485 194.0
80.1153 210.0
80.1822 200.0
80.249 199.0
80.3159 212.0
80.3827 228.0
80.4495 247.0
80.5164 250.0
80.5832 273.0
80.6501 239.0
80.7169 258.0
80.7838 230.0
80.8506 216.0
80.9175 230.0
80.9843 201.0
81.0512 182.0
81.118 207.0
81.1848 175.0
81.2517 176.0
81.3185 207.0
81.3854 196.0
81.4522 179.0
81.5191 212.0
81.5859 205.0
81.6528 188.0
81.7196 186.0
81.7864 194.0
81.8533 203.0
81.9201 183.0
81.987 199.0
82.0538 188.0
82.1207 200.0
82.1875 185.0
82.2544 196.0
82.3212 199.0
82.3881 170.0
82.4549 178.0
82.5217 196.0
82.5886 182.0
82.6554 182.0
82.7223 184.0
82.7891 168.0
82.856 196.0
82.9228 189.0
82.9897 201.0
83.0565 200.0
83.1233 193.0
83.1902 199.0
83.257 186.0
83.3239 201.0
83.3907 176.0
83.4576 192.0
83.5244 208.0
83.5913 189.0
83.6581 180.0
83.725 175.0
83.7918 143.0
83.8586 191.0
83.9255 184.0
83.9923 209.0
84.0592 165.0
84.126 180.0
84.1929 199.0
84.2597 185.0
84.3266 182.0
84.3934 184.0
84.4603 185.0
84.5271 146.0
84.5939 181.0
84.6608 167.0
84.7276 157.0
84.7945 186.0
84.8613 173.0
84.9282 168.0
84.995 148.0
85.0619 152.0
85.1287 160.0
85.1955 160.0
85.2624 170.0
85.3292 173.0
85.3961 192.0
85.4629 169.0
85.5298 153.0
85.5966 162.0
85.6635 167.0
85.7303 173.0
85.7972 145.0
85.864 146.0
85.9308 142.0
85.9977 161.0
86.0645 161.0
86.1314 129.0
86.1982 146.0
86.2651 147.0
86.3319 133.0
86.3988 163.0
86.4656 148.0
86.5324 154.0
86.5993 153.0
86.6661 164.0
86.733 160.0
86.7998 155.0
86.8667 192.0
86.9335 162.0
87.0004 164.0
87.0672 157.0
87.1341 166.0
87.2009 168.0
87.2677 148.0
87.3346 162.0
87.4014 149.0
87.4683 150.0
87.5351 159.0
87.602 169.0
87.6688 153.0
87.7357 151.0
87.8025 146.0
87.8693 137.0
87.9362 142.0
88.003 173.0
88.0699 162.0
88.1367 153.0
88.2036 152.0
88.2704 166.0
88.3373 149.0
88.4041 145.0
88.471 159.0
88.5378 135.0
88.6046 123.0
88.6715 139.0
88.7383 141.0
88.8052 135.0
88.872 141.0
88.9389 150.0
89.0057 161.0
89.0726 143.0
89.1394 129.0
89.2063 130.0
89.2731 146.0
89.3399 135.0
89.4068 133.0
89.4736 147.0
89.5405 135.0
89.6073 121.0
89.6742 117.0
89.741 125.0
89.8079 148.0
89.8747 123.0
89.9415 128.0