File: code/XRD_Analysis/Zeolites/data_files/SAPO-34/calc/20241114_SAPO-34-2_calc_Probe-4.xy
4.98146 947.0
5.0483 884.0
5.11515 880.0
5.18199 933.0
5.24884 886.0
5.31568 838.0
5.38253 850.0
5.44937 887.0
5.51622 781.0
5.58306 817.0
5.64991 805.0
5.71675 788.0
5.7836 782.0
5.85044 745.0
5.91729 725.0
5.98413 719.0
6.05098 706.0
6.11782 716.0
6.18467 682.0
6.25151 726.0
6.31836 751.0
6.3852 681.0
6.45205 657.0
6.51889 729.0
6.58574 716.0
6.65258 674.0
6.71943 679.0
6.78627 664.0
6.85312 632.0
6.91996 636.0
6.98681 674.0
7.05365 654.0
7.1205 674.0
7.18734 683.0
7.25419 728.0
7.32103 792.0
7.38788 1019.0
7.45472 1591.0
7.52157 1510.0
7.58841 808.0
7.65526 635.0
7.7221 620.0
7.78895 557.0
7.85579 605.0
7.92264 592.0
7.98948 552.0
8.05633 553.0
8.12317 551.0
8.19002 534.0
8.25686 557.0
8.32371 559.0
8.39055 558.0
8.4574 563.0
8.52424 558.0
8.59109 547.0
8.65793 543.0
8.72478 526.0
8.79162 538.0
8.85847 561.0
8.92532 544.0
8.99216 587.0
9.05901 512.0
9.12585 573.0
9.1927 598.0
9.25954 588.0
9.32639 732.0
9.39323 779.0
9.46008 1509.0
9.52692 3178.0
9.59377 6069.0
9.66061 6550.0
9.72746 3842.0
9.7943 1349.0
9.86115 798.0
9.92799 712.0
9.99484 667.0
10.0617 617.0
10.1285 648.0
10.1954 598.0
10.2622 601.0
10.3291 594.0
10.3959 612.0
10.4628 588.0
10.5296 590.0
10.5964 613.0
10.6633 548.0
10.7301 584.0
10.797 607.0
10.8638 576.0
10.9307 573.0
10.9975 565.0
11.0644 544.0
11.1312 538.0
11.198 518.0
11.2649 532.0
11.3317 510.0
11.3986 575.0
11.4654 509.0
11.5323 463.0
11.5991 529.0
11.666 497.0
11.7328 559.0
11.7997 511.0
11.8665 495.0
11.9333 451.0
12.0002 504.0
12.067 480.0
12.1339 490.0
12.2007 483.0
12.2676 529.0
12.3344 493.0
12.4013 467.0
12.4681 521.0
12.5349 520.0
12.6018 505.0
12.6686 502.0
12.7355 528.0
12.8023 622.0
12.8692 875.0
12.936 1435.0
13.0029 1876.0
13.0697 1932.0
13.1366 1273.0
13.2034 681.0
13.2702 571.0
13.3371 521.0
13.4039 574.0
13.4708 632.0
13.5376 643.0
13.6045 680.0
13.6713 599.0
13.7382 488.0
13.805 469.0
13.8719 427.0
13.9387 414.0
14.0055 431.0
14.0724 500.0
14.1392 511.0
14.2061 435.0
14.2729 464.0
14.3398 415.0
14.4066 407.0
14.4735 429.0
14.5403 391.0
14.6071 438.0
14.674 428.0
14.7408 441.0
14.8077 429.0
14.8745 591.0
14.9414 560.0
15.0082 449.0
15.0751 435.0
15.1419 416.0
15.2088 426.0
15.2756 470.0
15.3424 422.0
15.4093 404.0
15.4761 414.0
15.543 445.0
15.6098 427.0
15.6767 432.0
15.7435 479.0
15.8104 472.0
15.8772 490.0
15.944 501.0
16.0109 579.0
16.0777 821.0
16.1446 1343.0
16.2114 1819.0
16.2783 1629.0
16.3451 1035.0
16.412 634.0
16.4788 600.0
16.5457 596.0
16.6125 574.0
16.6793 632.0
16.7462 681.0
16.813 664.0
16.8799 751.0
16.9467 870.0
17.0136 904.0
17.0804 972.0
17.1473 927.0
17.2141 933.0
17.2809 836.0
17.3478 848.0
17.4146 773.0
17.4815 720.0
17.5483 674.0
17.6152 680.0
17.682 662.0
17.7489 684.0
17.8157 785.0
17.8826 797.0
17.9494 861.0
18.0162 844.0
18.0831 817.0
18.1499 652.0
18.2168 600.0
18.2836 576.0
18.3505 609.0
18.4173 569.0
18.4842 575.0
18.551 541.0
18.6179 529.0
18.6847 596.0
18.7515 564.0
18.8184 596.0
18.8852 594.0
18.9521 605.0
19.0189 638.0
19.0858 698.0
19.1526 872.0
19.2195 1013.0
19.2863 877.0
19.3531 833.0
19.42 697.0
19.4868 669.0
19.5537 645.0
19.6205 786.0
19.6874 1123.0
19.7542 1468.0
19.8211 1158.0
19.8879 876.0
19.9548 736.0
20.0216 668.0
20.0884 726.0
20.1553 727.0
20.2221 760.0
20.289 792.0
20.3558 802.0
20.4227 759.0
20.4895 813.0
20.5564 845.0
20.6232 1038.0
20.69 1634.0
20.7569 2368.0
20.8237 3088.0
20.8906 2777.0
20.9574 1802.0
21.0243 1290.0
21.0911 1160.0
21.158 1382.0
21.2248 1909.0
21.2917 2101.0
21.3585 1688.0
21.4253 1332.0
21.4922 1220.0
21.559 1246.0
21.6259 1110.0
21.6927 933.0
21.7596 790.0
21.8264 761.0
21.8933 695.0
21.9601 661.0
22.0269 645.0
22.0938 710.0
22.1606 728.0
22.2275 761.0
22.2943 990.0
22.3612 1442.0
22.428 2130.0
22.4949 2101.0
22.5617 1458.0
22.6286 1034.0
22.6954 855.0
22.7622 723.0
22.8291 764.0
22.8959 754.0
22.9628 710.0
23.0296 738.0
23.0965 799.0
23.1633 817.0
23.2302 1036.0
23.297 1261.0
23.3639 1372.0
23.4307 1111.0
23.4975 941.0
23.5644 835.0
23.6312 906.0
23.6981 878.0
23.7649 935.0
23.8318 949.0
23.8986 923.0
23.9655 1032.0
24.0323 1071.0
24.0991 1070.0
24.166 1043.0
24.2328 1134.0
24.2997 1085.0
24.3665 1088.0
24.4334 1024.0
24.5002 1057.0
24.5671 1054.0
24.6339 1022.0
24.7008 1000.0
24.7676 1020.0
24.8344 1017.0
24.9013 1125.0
24.9681 1128.0
25.035 1089.0
25.1018 1179.0
25.1687 1232.0
25.2355 1193.0
25.3024 1258.0
25.3692 1089.0
25.436 1041.0
25.5029 1008.0
25.5697 982.0
25.6366 1011.0
25.7034 963.0
25.7703 1058.0
25.8371 1256.0
25.904 1496.0
25.9708 1689.0
26.0377 1634.0
26.1045 1707.0
26.1713 1874.0
26.2382 1882.0
26.305 1598.0
26.3719 1285.0
26.4387 1213.0
26.5056 1023.0
26.5724 1082.0
26.6393 1064.0
26.7061 1005.0
26.773 933.0
26.8398 969.0
26.9066 994.0
26.9735 966.0
27.0403 961.0
27.1072 859.0
27.174 862.0
27.2409 870.0
27.3077 863.0
27.3746 867.0
27.4414 768.0
27.5082 802.0
27.5751 847.0
27.6419 872.0
27.7088 837.0
27.7756 899.0
27.8425 961.0
27.9093 1049.0
27.9762 990.0
28.043 1079.0
28.1099 947.0
28.1767 980.0
28.2435 935.0
28.3104 958.0
28.3772 1113.0
28.4441 1111.0
28.5109 1013.0
28.5778 1017.0
28.6446 887.0
28.7115 924.0
28.7783 880.0
28.8451 847.0
28.912 892.0
28.9788 897.0
29.0457 1029.0
29.1125 1127.0
29.1794 1104.0
29.2462 942.0
29.3131 914.0
29.3799 836.0
29.4468 835.0
29.5136 872.0
29.5804 877.0
29.6473 926.0
29.7141 977.0
29.781 1122.0
29.8478 1064.0
29.9147 1181.0
29.9815 1303.0
30.0484 1375.0
30.1152 1254.0
30.182 1103.0
30.2489 1185.0
30.3157 1208.0
30.3826 1306.0
30.4494 1300.0
30.5163 1450.0
30.5831 1315.0
30.65 1448.0
30.7168 1520.0
30.7837 1700.0
30.8505 1806.0
30.9173 2041.0
30.9842 2227.0
31.051 2080.0
31.1179 1975.0
31.1847 1969.0
31.2516 2218.0
31.3184 2227.0
31.3853 2270.0
31.4521 2019.0
31.519 1791.0
31.5858 1499.0
31.6526 1294.0
31.7195 1238.0
31.7863 1223.0
31.8532 1093.0
31.92 1176.0
31.9869 1134.0
32.0537 1100.0
32.1206 1058.0
32.1874 979.0
32.2542 955.0
32.3211 966.0
32.3879 918.0
32.4548 982.0
32.5216 970.0
32.5885 929.0
32.6553 976.0
32.7222 922.0
32.789 832.0
32.8559 838.0
32.9227 929.0
32.9895 864.0
33.0564 807.0
33.1232 814.0
33.1901 792.0
33.2569 762.0
33.3238 735.0
33.3906 748.0
33.4575 751.0
33.5243 695.0
33.5911 722.0
33.658 747.0
33.7248 800.0
33.7917 838.0
33.8585 695.0
33.9254 708.0
33.9922 698.0
34.0591 693.0
34.1259 615.0
34.1928 685.0
34.2596 642.0
34.3264 592.0
34.3933 684.0
34.4601 793.0
34.527 902.0
34.5938 869.0
34.6607 713.0
34.7275 696.0
34.7944 667.0
34.8612 716.0
34.928 722.0
34.9949 681.0
35.0617 614.0
35.1286 571.0
35.1954 607.0
35.2623 578.0
35.3291 585.0
35.396 576.0
35.4628 568.0
35.5297 570.0
35.5965 545.0
35.6633 529.0
35.7302 505.0
35.797 511.0
35.8639 480.0
35.9307 524.0
35.9976 526.0
36.0644 524.0
36.1313 547.0
36.1981 521.0
36.265 545.0
36.3318 552.0
36.3986 579.0
36.4655 537.0
36.5323 587.0
36.5992 531.0
36.666 524.0
36.7329 460.0
36.7997 495.0
36.8666 473.0
36.9334 477.0
37.0002 473.0
37.0671 568.0
37.1339 511.0
37.2008 471.0
37.2676 478.0
37.3345 465.0
37.4013 406.0
37.4682 445.0
37.535 476.0
37.6019 464.0
37.6687 441.0
37.7355 503.0
37.8024 476.0
37.8692 545.0
37.9361 606.0
38.0029 561.0
38.0698 539.0
38.1366 461.0
38.2035 415.0
38.2703 400.0
38.3371 434.0
38.404 448.0
38.4708 438.0
38.5377 438.0
38.6045 412.0
38.6714 400.0
38.7382 432.0
38.8051 412.0
38.8719 424.0
38.9388 423.0
39.0056 478.0
39.0724 426.0
39.1393 436.0
39.2061 430.0
39.273 464.0
39.3398 488.0
39.4067 511.0
39.4735 504.0
39.5404 448.0
39.6072 457.0
39.6741 438.0
39.7409 411.0
39.8077 470.0
39.8746 461.0
39.9414 404.0
40.0083 464.0
40.0751 454.0
40.142 424.0
40.2088 485.0
40.2757 476.0
40.3425 422.0
40.4093 477.0
40.4762 404.0
40.543 402.0
40.6099 418.0
40.6767 439.0
40.7436 431.0
40.8104 433.0
40.8773 413.0
40.9441 463.0
41.011 404.0
41.0778 409.0
41.1446 442.0
41.2115 414.0
41.2783 428.0
41.3452 433.0
41.412 458.0
41.4789 490.0
41.5457 460.0
41.6126 466.0
41.6794 453.0
41.7462 457.0
41.8131 443.0
41.8799 438.0
41.9468 428.0
42.0136 453.0
42.0805 400.0
42.1473 463.0
42.2142 474.0
42.281 487.0
42.3479 481.0
42.4147 489.0
42.4815 486.0
42.5484 459.0
42.6152 410.0
42.6821 465.0
42.7489 441.0
42.8158 432.0
42.8826 383.0
42.9495 443.0
43.0163 451.0
43.0831 449.0
43.15 458.0
43.2168 490.0
43.2837 538.0
43.3505 520.0
43.4174 511.0
43.4842 510.0
43.5511 467.0
43.6179 521.0
43.6848 512.0
43.7516 494.0
43.8184 523.0
43.8853 529.0
43.9521 540.0
44.019 487.0
44.0858 444.0
44.1527 477.0
44.2195 447.0
44.2864 443.0
44.3532 422.0
44.4201 429.0
44.4869 469.0
44.5537 395.0
44.6206 483.0
44.6874 456.0
44.7543 439.0
44.8211 451.0
44.888 419.0
44.9548 434.0
45.0217 428.0
45.0885 448.0
45.1553 471.0
45.2222 427.0
45.289 414.0
45.3559 432.0
45.4227 432.0
45.4896 428.0
45.5564 432.0
45.6233 441.0
45.6901 440.0
45.757 458.0
45.8238 448.0
45.8906 430.0
45.9575 352.0
46.0243 386.0
46.0912 428.0
46.158 408.0
46.2249 430.0
46.2917 432.0
46.3586 403.0
46.4254 386.0
46.4922 413.0
46.5591 440.0
46.6259 429.0
46.6928 396.0
46.7596 400.0
46.8265 428.0
46.8933 429.0
46.9602 490.0
47.027 438.0
47.0939 426.0
47.1607 436.0
47.2275 451.0
47.2944 434.0
47.3612 416.0
47.4281 420.0
47.4949 423.0
47.5618 425.0
47.6286 551.0
47.6955 496.0
47.7623 516.0
47.8291 466.0
47.896 434.0
47.9628 455.0
48.0297 425.0
48.0965 486.0
48.1634 469.0
48.2302 453.0
48.2971 460.0
48.3639 451.0
48.4308 445.0
48.4976 455.0
48.5644 446.0
48.6313 426.0
48.6981 411.0
48.765 410.0
48.8318 443.0
48.8987 432.0
48.9655 397.0
49.0324 449.0
49.0992 517.0
49.1661 446.0
49.2329 497.0
49.2997 555.0
49.3666 678.0
49.4334 568.0
49.5003 599.0
49.5671 627.0
49.634 519.0
49.7008 532.0
49.7677 522.0
49.8345 501.0
49.9013 490.0
49.9682 457.0
50.035 495.0
50.1019 463.0
50.1687 478.0
50.2356 466.0
50.3024 439.0
50.3693 504.0
50.4361 461.0
50.503 479.0
50.5698 445.0
50.6366 508.0
50.7035 503.0
50.7703 473.0
50.8372 477.0
50.904 516.0
50.9709 475.0
51.0377 534.0
51.1046 506.0
51.1714 527.0
51.2382 540.0
51.3051 520.0
51.3719 547.0
51.4388 542.0
51.5056 504.0
51.5725 492.0
51.6393 510.0
51.7062 464.0
51.773 517.0
51.8399 429.0
51.9067 431.0
51.9735 447.0
52.0404 430.0
52.1072 482.0
52.1741 483.0
52.2409 488.0
52.3078 443.0
52.3746 462.0
52.4415 428.0
52.5083 445.0
52.5751 394.0
52.642 462.0
52.7088 430.0
52.7757 429.0
52.8425 441.0
52.9094 411.0
52.9762 407.0
53.0431 408.0
53.1099 423.0
53.1768 425.0
53.2436 426.0
53.3104 434.0
53.3773 420.0
53.4441 455.0
53.511 423.0
53.5778 433.0
53.6447 453.0
53.7115 479.0
53.7784 522.0
53.8452 491.0
53.9121 459.0
53.9789 496.0
54.0457 429.0
54.1126 441.0
54.1794 486.0
54.2463 434.0
54.3131 453.0
54.38 443.0
54.4468 429.0
54.5137 426.0
54.5805 403.0
54.6473 422.0
54.7142 408.0
54.781 444.0
54.8479 433.0
54.9147 465.0
54.9816 461.0
55.0484 407.0
55.1153 418.0
55.1821 403.0
55.249 453.0
55.3158 399.0
55.3826 386.0
55.4495 431.0
55.5163 436.0
55.5832 508.0
55.65 559.0
55.7169 485.0
55.7837 498.0
55.8506 443.0
55.9174 451.0
55.9842 448.0
56.0511 465.0
56.1179 482.0
56.1848 447.0
56.2516 449.0
56.3185 411.0
56.3853 450.0
56.4522 451.0
56.519 404.0
56.5859 463.0
56.6527 507.0
56.7195 436.0
56.7864 449.0
56.8532 498.0
56.9201 438.0
56.9869 423.0
57.0538 467.0
57.1206 408.0
57.1875 378.0
57.2543 425.0
57.3212 401.0
57.388 428.0
57.4548 396.0
57.5217 415.0
57.5885 408.0
57.6554 387.0
57.7222 432.0
57.7891 364.0
57.8559 434.0
57.9228 366.0
57.9896 353.0
58.0564 367.0
58.1233 393.0
58.1901 385.0
58.257 362.0
58.3238 373.0
58.3907 391.0
58.4575 408.0
58.5244 411.0
58.5912 394.0
58.6581 448.0
58.7249 425.0
58.7917 425.0
58.8586 463.0
58.9254 400.0
58.9923 387.0
59.0591 406.0
59.126 383.0
59.1928 356.0
59.2597 353.0
59.3265 357.0
59.3933 365.0
59.4602 356.0
59.527 409.0
59.5939 356.0
59.6607 367.0
59.7276 411.0
59.7944 422.0
59.8613 367.0
59.9281 346.0
59.995 431.0
60.0618 410.0
60.1286 417.0
60.1955 416.0
60.2623 432.0
60.3292 442.0
60.396 416.0
60.4629 415.0
60.5297 384.0
60.5966 397.0
60.6634 401.0
60.7302 403.0
60.7971 446.0
60.8639 427.0
60.9308 424.0
60.9976 423.0
61.0645 380.0
61.1313 358.0
61.1982 401.0
61.265 400.0
61.3319 388.0
61.3987 395.0
61.4655 368.0
61.5324 385.0
61.5992 388.0
61.6661 413.0
61.7329 386.0
61.7998 402.0
61.8666 404.0
61.9335 414.0
62.0003 384.0
62.0672 375.0
62.134 380.0
62.2008 412.0
62.2677 377.0
62.3345 382.0
62.4014 391.0
62.4682 402.0
62.5351 388.0
62.6019 362.0
62.6688 401.0
62.7356 379.0
62.8024 401.0
62.8693 386.0
62.9361 371.0
63.003 412.0
63.0698 380.0
63.1367 385.0
63.2035 418.0
63.2704 335.0
63.3372 342.0
63.4041 381.0
63.4709 382.0
63.5377 371.0
63.6046 372.0
63.6714 382.0
63.7383 403.0
63.8051 397.0
63.872 364.0
63.9388 356.0
64.0057 402.0
64.0725 348.0
64.1393 338.0
64.2062 351.0
64.273 333.0
64.3399 352.0
64.4067 387.0
64.4736 339.0
64.5404 360.0
64.6073 348.0
64.6741 332.0
64.741 369.0
64.8078 355.0
64.8746 380.0
64.9415 392.0
65.0083 384.0
65.0752 380.0
65.142 388.0
65.2089 399.0
65.2757 404.0
65.3426 379.0
65.4094 389.0
65.4762 349.0
65.5431 430.0
65.6099 428.0
65.6768 395.0
65.7436 373.0
65.8105 383.0
65.8773 381.0
65.9442 358.0
66.011 330.0
66.0779 389.0
66.1447 395.0
66.2115 341.0
66.2784 349.0
66.3452 364.0
66.4121 399.0
66.4789 392.0
66.5458 340.0
66.6126 352.0
66.6795 356.0
66.7463 388.0
66.8132 387.0
66.88 429.0
66.9468 410.0
67.0137 397.0
67.0805 381.0
67.1474 438.0
67.2142 424.0
67.2811 426.0
67.3479 414.0
67.4148 378.0
67.4816 407.0
67.5484 384.0
67.6153 364.0
67.6821 362.0
67.749 372.0
67.8158 377.0
67.8827 382.0
67.9495 364.0
68.0164 377.0
68.0832 398.0
68.1501 371.0
68.2169 384.0
68.2837 377.0
68.3506 354.0
68.4174 339.0
68.4843 324.0
68.5511 355.0
68.618 392.0
68.6848 384.0
68.7517 375.0
68.8185 357.0
68.8853 370.0
68.9522 334.0
69.019 338.0
69.0859 337.0
69.1527 332.0
69.2196 361.0
69.2864 338.0
69.3533 365.0
69.4201 324.0
69.487 313.0
69.5538 360.0
69.6206 358.0
69.6875 347.0
69.7543 365.0
69.8212 351.0
69.888 350.0
69.9549 366.0
70.0217 384.0
70.0886 368.0
70.1554 369.0
70.2222 402.0
70.2891 364.0
70.3559 364.0
70.4228 387.0
70.4896 366.0
70.5565 383.0
70.6233 357.0
70.6902 389.0
70.757 379.0
70.8239 378.0
70.8907 385.0
70.9575 371.0
71.0244 375.0
71.0912 398.0
71.1581 447.0
71.2249 419.0
71.2918 422.0
71.3586 399.0
71.4255 394.0
71.4923 392.0
71.5592 376.0
71.626 391.0
71.6928 353.0
71.7597 309.0
71.8265 336.0
71.8934 348.0
71.9602 347.0
72.0271 361.0
72.0939 331.0
72.1608 368.0
72.2276 349.0
72.2944 366.0
72.3613 363.0
72.4281 377.0
72.495 354.0
72.5618 380.0
72.6287 325.0
72.6955 348.0
72.7624 362.0
72.8292 358.0
72.8961 304.0
72.9629 324.0
73.0297 340.0
73.0966 344.0
73.1634 313.0
73.2303 366.0
73.2971 347.0
73.364 342.0
73.4308 305.0
73.4977 320.0
73.5645 375.0
73.6313 346.0
73.6982 289.0
73.765 335.0
73.8319 338.0
73.8987 349.0
73.9656 338.0
74.0324 323.0
74.0993 350.0
74.1661 315.0
74.233 336.0
74.2998 333.0
74.3666 345.0
74.4335 323.0
74.5003 334.0
74.5672 309.0
74.634 357.0
74.7009 333.0
74.7677 341.0
74.8346 332.0
74.9014 328.0
74.9683 311.0
75.0351 329.0
75.1019 338.0
75.1688 317.0
75.2356 313.0
75.3025 304.0
75.3693 360.0
75.4362 345.0
75.503 324.0
75.5699 326.0
75.6367 337.0
75.7035 318.0
75.7704 307.0
75.8372 336.0
75.9041 323.0
75.9709 320.0
76.0378 332.0
76.1046 363.0
76.1715 364.0
76.2383 292.0
76.3052 303.0
76.372 328.0
76.4388 331.0
76.5057 320.0
76.5725 322.0
76.6394 317.0
76.7062 333.0
76.7731 282.0
76.8399 323.0
76.9068 297.0
76.9736 309.0
77.0404 290.0
77.1073 277.0
77.1741 273.0
77.241 320.0
77.3078 334.0
77.3747 353.0
77.4415 346.0
77.5084 308.0
77.5752 344.0
77.6421 306.0
77.7089 288.0
77.7757 337.0
77.8426 305.0
77.9094 300.0
77.9763 311.0
78.0431 314.0
78.11 326.0
78.1768 303.0
78.2437 279.0
78.3105 297.0
78.3773 301.0
78.4442 309.0
78.511 321.0
78.5779 261.0
78.6447 321.0
78.7116 279.0
78.7784 277.0
78.8453 315.0
78.9121 314.0
78.979 287.0
79.0458 295.0
79.1126 295.0
79.1795 291.0
79.2463 289.0
79.3132 273.0
79.38 282.0
79.4469 292.0
79.5137 292.0
79.5806 239.0
79.6474 318.0
79.7143 272.0
79.7811 266.0
79.8479 287.0
79.9148 273.0
79.9816 252.0
80.0485 291.0
80.1153 252.0
80.1822 283.0
80.249 269.0
80.3159 272.0
80.3827 302.0
80.4495 270.0
80.5164 254.0
80.5832 263.0
80.6501 263.0
80.7169 271.0
80.7838 266.0
80.8506 274.0
80.9175 279.0
80.9843 266.0
81.0512 266.0
81.118 305.0
81.1848 270.0
81.2517 264.0
81.3185 263.0
81.3854 239.0
81.4522 268.0
81.5191 255.0
81.5859 243.0
81.6528 285.0
81.7196 264.0
81.7864 262.0
81.8533 245.0
81.9201 276.0
81.987 290.0
82.0538 263.0
82.1207 254.0
82.1875 246.0
82.2544 252.0
82.3212 236.0
82.3881 263.0
82.4549 255.0
82.5217 230.0
82.5886 235.0
82.6554 228.0
82.7223 236.0
82.7891 248.0
82.856 193.0
82.9228 227.0
82.9897 254.0
83.0565 210.0
83.1233 270.0
83.1902 264.0
83.257 210.0
83.3239 244.0
83.3907 223.0
83.4576 254.0
83.5244 239.0
83.5913 248.0
83.6581 227.0
83.725 229.0
83.7918 225.0
83.8586 231.0
83.9255 236.0
83.9923 215.0
84.0592 213.0
84.126 236.0
84.1929 239.0
84.2597 209.0
84.3266 222.0
84.3934 226.0
84.4603 238.0
84.5271 198.0
84.5939 196.0
84.6608 228.0
84.7276 221.0
84.7945 224.0
84.8613 232.0
84.9282 230.0
84.995 239.0
85.0619 205.0
85.1287 206.0
85.1955 212.0
85.2624 238.0
85.3292 222.0
85.3961 213.0
85.4629 200.0
85.5298 196.0
85.5966 198.0
85.6635 211.0
85.7303 211.0
85.7972 221.0
85.864 199.0
85.9308 208.0
85.9977 207.0
86.0645 201.0
86.1314 228.0
86.1982 188.0
86.2651 198.0
86.3319 182.0
86.3988 196.0
86.4656 210.0
86.5324 235.0
86.5993 203.0
86.6661 201.0
86.733 192.0
86.7998 184.0
86.8667 191.0
86.9335 178.0
87.0004 170.0
87.0672 215.0
87.1341 203.0
87.2009 188.0
87.2677 214.0
87.3346 225.0
87.4014 193.0
87.4683 196.0
87.5351 193.0
87.602 190.0
87.6688 200.0
87.7357 189.0
87.8025 215.0
87.8693 222.0
87.9362 230.0
88.003 208.0
88.0699 176.0
88.1367 231.0
88.2036 195.0
88.2704 203.0
88.3373 184.0
88.4041 191.0
88.471 193.0
88.5378 193.0
88.6046 219.0
88.6715 189.0
88.7383 209.0
88.8052 211.0
88.872 165.0
88.9389 206.0
89.0057 182.0
89.0726 167.0
89.1394 216.0
89.2063 222.0
89.2731 186.0
89.3399 167.0
89.4068 173.0
89.4736 173.0
89.5405 195.0
89.6073 221.0
89.6742 188.0
89.741 196.0
89.8079 188.0
89.8747 181.0
89.9415 182.0