File: code/XRD_Analysis/Zeolites/data_files/SAPO-34/calc/20241114_SAPO-34-2_calc_Probe-1.xy
4.98146 1021.0
5.0483 975.0
5.11515 931.0
5.18199 883.0
5.24884 930.0
5.31568 863.0
5.38253 828.0
5.44937 832.0
5.51622 855.0
5.58306 781.0
5.64991 813.0
5.71675 856.0
5.7836 787.0
5.85044 750.0
5.91729 816.0
5.98413 774.0
6.05098 756.0
6.11782 756.0
6.18467 745.0
6.25151 714.0
6.31836 678.0
6.3852 704.0
6.45205 694.0
6.51889 770.0
6.58574 681.0
6.65258 653.0
6.71943 698.0
6.78627 633.0
6.85312 654.0
6.91996 685.0
6.98681 610.0
7.05365 666.0
7.1205 644.0
7.18734 638.0
7.25419 659.0
7.32103 626.0
7.38788 628.0
7.45472 625.0
7.52157 617.0
7.58841 616.0
7.65526 647.0
7.7221 599.0
7.78895 597.0
7.85579 574.0
7.92264 529.0
7.98948 581.0
8.05633 555.0
8.12317 574.0
8.19002 598.0
8.25686 576.0
8.32371 585.0
8.39055 563.0
8.4574 550.0
8.52424 551.0
8.59109 531.0
8.65793 550.0
8.72478 581.0
8.79162 560.0
8.85847 564.0
8.92532 529.0
8.99216 582.0
9.05901 543.0
9.12585 603.0
9.1927 674.0
9.25954 722.0
9.32639 822.0
9.39323 1023.0
9.46008 1571.0
9.52692 3433.0
9.59377 7875.0
9.66061 11900.0
9.72746 8183.0
9.7943 3079.0
9.86115 1419.0
9.92799 1073.0
9.99484 898.0
10.0617 833.0
10.1285 779.0
10.1954 773.0
10.2622 781.0
10.3291 715.0
10.3959 701.0
10.4628 621.0
10.5296 688.0
10.5964 643.0
10.6633 732.0
10.7301 899.0
10.797 978.0
10.8638 774.0
10.9307 595.0
10.9975 541.0
11.0644 579.0
11.1312 516.0
11.198 550.0
11.2649 534.0
11.3317 522.0
11.3986 486.0
11.4654 524.0
11.5323 531.0
11.5991 481.0
11.666 488.0
11.7328 521.0
11.7997 522.0
11.8665 490.0
11.9333 536.0
12.0002 556.0
12.067 491.0
12.1339 509.0
12.2007 496.0
12.2676 455.0
12.3344 448.0
12.4013 506.0
12.4681 519.0
12.5349 550.0
12.6018 520.0
12.6686 522.0
12.7355 590.0
12.8023 623.0
12.8692 793.0
12.936 1078.0
13.0029 1945.0
13.0697 3124.0
13.1366 2645.0
13.2034 1268.0
13.2702 847.0
13.3371 661.0
13.4039 617.0
13.4708 634.0
13.5376 710.0
13.6045 747.0
13.6713 726.0
13.7382 580.0
13.805 490.0
13.8719 440.0
13.9387 443.0
14.0055 463.0
14.0724 575.0
14.1392 591.0
14.2061 651.0
14.2729 511.0
14.3398 463.0
14.4066 466.0
14.4735 475.0
14.5403 425.0
14.6071 394.0
14.674 460.0
14.7408 451.0
14.8077 453.0
14.8745 458.0
14.9414 462.0
15.0082 420.0
15.0751 475.0
15.1419 445.0
15.2088 411.0
15.2756 470.0
15.3424 495.0
15.4093 476.0
15.4761 561.0
15.543 563.0
15.6098 580.0
15.6767 572.0
15.7435 524.0
15.8104 532.0
15.8772 487.0
15.944 569.0
16.0109 587.0
16.0777 789.0
16.1446 1227.0
16.2114 2011.0
16.2783 2239.0
16.3451 1549.0
16.412 859.0
16.4788 630.0
16.5457 605.0
16.6125 620.0
16.6793 641.0
16.7462 647.0
16.813 786.0
16.8799 741.0
16.9467 946.0
17.0136 1144.0
17.0804 1380.0
17.1473 1447.0
17.2141 1089.0
17.2809 1037.0
17.3478 1083.0
17.4146 1152.0
17.4815 1054.0
17.5483 864.0
17.6152 787.0
17.682 748.0
17.7489 732.0
17.8157 770.0
17.8826 939.0
17.9494 1177.0
18.0162 1331.0
18.0831 1042.0
18.1499 795.0
18.2168 691.0
18.2836 673.0
18.3505 642.0
18.4173 597.0
18.4842 645.0
18.551 637.0
18.6179 582.0
18.6847 597.0
18.7515 600.0
18.8184 629.0
18.8852 653.0
18.9521 658.0
19.0189 648.0
19.0858 781.0
19.1526 877.0
19.2195 1145.0
19.2863 1203.0
19.3531 1122.0
19.42 834.0
19.4868 832.0
19.5537 789.0
19.6205 759.0
19.6874 807.0
19.7542 846.0
19.8211 910.0
19.8879 885.0
19.9548 860.0
20.0216 851.0
20.0884 899.0
20.1553 954.0
20.2221 1027.0
20.289 1045.0
20.3558 962.0
20.4227 908.0
20.4895 957.0
20.5564 996.0
20.6232 1131.0
20.69 1466.0
20.7569 2406.0
20.8237 3818.0
20.8906 4477.0
20.9574 3519.0
21.0243 2024.0
21.0911 1404.0
21.158 1176.0
21.2248 1200.0
21.2917 1244.0
21.3585 1287.0
21.4253 1398.0
21.4922 1533.0
21.559 1505.0
21.6259 1337.0
21.6927 1151.0
21.7596 868.0
21.8264 767.0
21.8933 729.0
21.9601 767.0
22.0269 685.0
22.0938 736.0
22.1606 772.0
22.2275 839.0
22.2943 899.0
22.3612 844.0
22.428 784.0
22.4949 788.0
22.5617 848.0
22.6286 809.0
22.6954 861.0
22.7622 903.0
22.8291 891.0
22.8959 851.0
22.9628 865.0
23.0296 877.0
23.0965 823.0
23.1633 955.0
23.2302 1071.0
23.297 1340.0
23.3639 1672.0
23.4307 1360.0
23.4975 1026.0
23.5644 896.0
23.6312 864.0
23.6981 906.0
23.7649 899.0
23.8318 987.0
23.8986 1037.0
23.9655 1235.0
24.0323 1432.0
24.0991 1621.0
24.166 1645.0
24.2328 1671.0
24.2997 1369.0
24.3665 1253.0
24.4334 1064.0
24.5002 1013.0
24.5671 1020.0
24.6339 998.0
24.7008 1020.0
24.7676 962.0
24.8344 967.0
24.9013 979.0
24.9681 962.0
25.035 1115.0
25.1018 1263.0
25.1687 1549.0
25.2355 1754.0
25.3024 1580.0
25.3692 1232.0
25.436 1160.0
25.5029 1116.0
25.5697 1075.0
25.6366 1038.0
25.7034 1035.0
25.7703 1038.0
25.8371 1063.0
25.904 1058.0
25.9708 1114.0
26.0377 1263.0
26.1045 1543.0
26.1713 1983.0
26.2382 2246.0
26.305 2018.0
26.3719 1677.0
26.4387 1458.0
26.5056 1412.0
26.5724 1367.0
26.6393 1306.0
26.7061 1062.0
26.773 1076.0
26.8398 987.0
26.9066 944.0
26.9735 962.0
27.0403 912.0
27.1072 928.0
27.174 866.0
27.2409 943.0
27.3077 940.0
27.3746 871.0
27.4414 859.0
27.5082 888.0
27.5751 885.0
27.6419 884.0
27.7088 873.0
27.7756 882.0
27.8425 1003.0
27.9093 1094.0
27.9762 1174.0
28.043 1362.0
28.1099 1300.0
28.1767 1165.0
28.2435 1154.0
28.3104 1115.0
28.3772 1158.0
28.4441 1222.0
28.5109 1228.0
28.5778 1081.0
28.6446 976.0
28.7115 929.0
28.7783 948.0
28.8451 885.0
28.912 918.0
28.9788 915.0
29.0457 947.0
29.1125 945.0
29.1794 902.0
29.2462 930.0
29.3131 900.0
29.3799 904.0
29.4468 907.0
29.5136 911.0
29.5804 908.0
29.6473 930.0
29.7141 962.0
29.781 1049.0
29.8478 1090.0
29.9147 1133.0
29.9815 1097.0
30.0484 1005.0
30.1152 1138.0
30.182 1187.0
30.2489 1240.0
30.3157 1210.0
30.3826 1209.0
30.4494 1321.0
30.5163 1316.0
30.5831 1333.0
30.65 1362.0
30.7168 1489.0
30.7837 1620.0
30.8505 1862.0
30.9173 2214.0
30.9842 2683.0
31.051 3001.0
31.1179 2768.0
31.1847 2454.0
31.2516 2551.0
31.3184 2660.0
31.3853 2677.0
31.4521 2606.0
31.519 2023.0
31.5858 1646.0
31.6526 1383.0
31.7195 1227.0
31.7863 1320.0
31.8532 1298.0
31.92 1258.0
31.9869 1287.0
32.0537 1262.0
32.1206 1094.0
32.1874 1065.0
32.2542 1021.0
32.3211 1013.0
32.3879 1021.0
32.4548 1138.0
32.5216 1101.0
32.5885 1110.0
32.6553 1051.0
32.7222 1013.0
32.789 1029.0
32.8559 1032.0
32.9227 974.0
32.9895 957.0
33.0564 985.0
33.1232 974.0
33.1901 886.0
33.2569 859.0
33.3238 792.0
33.3906 798.0
33.4575 738.0
33.5243 712.0
33.5911 713.0
33.658 726.0
33.7248 690.0
33.7917 795.0
33.8585 782.0
33.9254 776.0
33.9922 758.0
34.0591 700.0
34.1259 679.0
34.1928 634.0
34.2596 658.0
34.3264 667.0
34.3933 650.0
34.4601 616.0
34.527 649.0
34.5938 645.0
34.6607 667.0
34.7275 633.0
34.7944 625.0
34.8612 714.0
34.928 790.0
34.9949 800.0
35.0617 767.0
35.1286 723.0
35.1954 633.0
35.2623 606.0
35.3291 617.0
35.396 620.0
35.4628 637.0
35.5297 619.0
35.5965 575.0
35.6633 543.0
35.7302 533.0
35.797 513.0
35.8639 590.0
35.9307 506.0
35.9976 516.0
36.0644 527.0
36.1313 537.0
36.1981 557.0
36.265 548.0
36.3318 566.0
36.3986 658.0
36.4655 550.0
36.5323 554.0
36.5992 563.0
36.666 525.0
36.7329 563.0
36.7997 500.0
36.8666 532.0
36.9334 524.0
37.0002 453.0
37.0671 467.0
37.1339 462.0
37.2008 436.0
37.2676 471.0
37.3345 442.0
37.4013 440.0
37.4682 451.0
37.535 478.0
37.6019 458.0
37.6687 481.0
37.7355 427.0
37.8024 436.0
37.8692 392.0
37.9361 451.0
38.0029 418.0
38.0698 415.0
38.1366 470.0
38.2035 459.0
38.2703 465.0
38.3371 449.0
38.404 461.0
38.4708 424.0
38.5377 454.0
38.6045 435.0
38.6714 466.0
38.7382 429.0
38.8051 427.0
38.8719 423.0
38.9388 466.0
39.0056 462.0
39.0724 440.0
39.1393 470.0
39.2061 497.0
39.273 481.0
39.3398 442.0
39.4067 507.0
39.4735 482.0
39.5404 506.0
39.6072 474.0
39.6741 488.0
39.7409 514.0
39.8077 483.0
39.8746 462.0
39.9414 464.0
40.0083 485.0
40.0751 454.0
40.142 522.0
40.2088 498.0
40.2757 457.0
40.3425 502.0
40.4093 446.0
40.4762 438.0
40.543 464.0
40.6099 491.0
40.6767 444.0
40.7436 458.0
40.8104 443.0
40.8773 431.0
40.9441 432.0
41.011 407.0
41.0778 455.0
41.1446 463.0
41.2115 443.0
41.2783 426.0
41.3452 459.0
41.412 441.0
41.4789 453.0
41.5457 462.0
41.6126 451.0
41.6794 434.0
41.7462 445.0
41.8131 453.0
41.8799 433.0
41.9468 428.0
42.0136 435.0
42.0805 450.0
42.1473 456.0
42.2142 431.0
42.281 427.0
42.3479 464.0
42.4147 433.0
42.4815 471.0
42.5484 446.0
42.6152 441.0
42.6821 402.0
42.7489 461.0
42.8158 431.0
42.8826 469.0
42.9495 412.0
43.0163 428.0
43.0831 467.0
43.15 483.0
43.2168 494.0
43.2837 507.0
43.3505 518.0
43.4174 541.0
43.4842 526.0
43.5511 536.0
43.6179 466.0
43.6848 487.0
43.7516 477.0
43.8184 480.0
43.8853 501.0
43.9521 512.0
44.019 480.0
44.0858 453.0
44.1527 471.0
44.2195 436.0
44.2864 410.0
44.3532 454.0
44.4201 439.0
44.4869 409.0
44.5537 422.0
44.6206 430.0
44.6874 440.0
44.7543 413.0
44.8211 443.0
44.888 471.0
44.9548 408.0
45.0217 435.0
45.0885 431.0
45.1553 418.0
45.2222 430.0
45.289 476.0
45.3559 375.0
45.4227 399.0
45.4896 404.0
45.5564 429.0
45.6233 428.0
45.6901 404.0
45.757 451.0
45.8238 416.0
45.8906 422.0
45.9575 381.0
46.0243 401.0
46.0912 417.0
46.158 381.0
46.2249 422.0
46.2917 428.0
46.3586 427.0
46.4254 434.0
46.4922 409.0
46.5591 425.0
46.6259 403.0
46.6928 429.0
46.7596 414.0
46.8265 395.0
46.8933 410.0
46.9602 402.0
47.027 396.0
47.0939 413.0
47.1607 466.0
47.2275 450.0
47.2944 434.0
47.3612 436.0
47.4281 451.0
47.4949 471.0
47.5618 419.0
47.6286 422.0
47.6955 410.0
47.7623 377.0
47.8291 420.0
47.896 368.0
47.9628 465.0
48.0297 450.0
48.0965 423.0
48.1634 455.0
48.2302 460.0
48.2971 461.0
48.3639 476.0
48.4308 462.0
48.4976 428.0
48.5644 424.0
48.6313 417.0
48.6981 431.0
48.765 411.0
48.8318 438.0
48.8987 378.0
48.9655 430.0
49.0324 415.0
49.0992 479.0
49.1661 494.0
49.2329 490.0
49.2997 556.0
49.3666 634.0
49.4334 619.0
49.5003 646.0
49.5671 676.0
49.634 623.0
49.7008 583.0
49.7677 524.0
49.8345 545.0
49.9013 517.0
49.9682 490.0
50.035 538.0
50.1019 470.0
50.1687 490.0
50.2356 474.0
50.3024 493.0
50.3693 429.0
50.4361 503.0
50.503 502.0
50.5698 434.0
50.6366 479.0
50.7035 495.0
50.7703 491.0
50.8372 491.0
50.904 483.0
50.9709 502.0
51.0377 495.0
51.1046 467.0
51.1714 544.0
51.2382 559.0
51.3051 598.0
51.3719 551.0
51.4388 538.0
51.5056 524.0
51.5725 477.0
51.6393 445.0
51.7062 477.0
51.773 449.0
51.8399 505.0
51.9067 487.0
51.9735 454.0
52.0404 424.0
52.1072 445.0
52.1741 459.0
52.2409 441.0
52.3078 407.0
52.3746 423.0
52.4415 491.0
52.5083 458.0
52.5751 427.0
52.642 440.0
52.7088 454.0
52.7757 418.0
52.8425 466.0
52.9094 436.0
52.9762 476.0
53.0431 442.0
53.1099 449.0
53.1768 436.0
53.2436 429.0
53.3104 454.0
53.3773 449.0
53.4441 430.0
53.511 413.0
53.5778 451.0
53.6447 472.0
53.7115 444.0
53.7784 513.0
53.8452 444.0
53.9121 477.0
53.9789 451.0
54.0457 434.0
54.1126 443.0
54.1794 442.0
54.2463 438.0
54.3131 438.0
54.38 466.0
54.4468 412.0
54.5137 398.0
54.5805 411.0
54.6473 435.0
54.7142 430.0
54.781 462.0
54.8479 407.0
54.9147 447.0
54.9816 399.0
55.0484 414.0
55.1153 433.0
55.1821 406.0
55.249 434.0
55.3158 369.0
55.3826 444.0
55.4495 423.0
55.5163 458.0
55.5832 474.0
55.65 460.0
55.7169 455.0
55.7837 443.0
55.8506 425.0
55.9174 460.0
55.9842 461.0
56.0511 447.0
56.1179 418.0
56.1848 460.0
56.2516 440.0
56.3185 439.0
56.3853 404.0
56.4522 463.0
56.519 460.0
56.5859 462.0
56.6527 417.0
56.7195 413.0
56.7864 446.0
56.8532 492.0
56.9201 439.0
56.9869 384.0
57.0538 462.0
57.1206 399.0
57.1875 410.0
57.2543 441.0
57.3212 391.0
57.388 372.0
57.4548 426.0
57.5217 399.0
57.5885 365.0
57.6554 347.0
57.7222 387.0
57.7891 383.0
57.8559 364.0
57.9228 378.0
57.9896 363.0
58.0564 417.0
58.1233 420.0
58.1901 388.0
58.257 358.0
58.3238 368.0
58.3907 323.0
58.4575 341.0
58.5244 378.0
58.5912 370.0
58.6581 353.0
58.7249 380.0
58.7917 369.0
58.8586 337.0
58.9254 341.0
58.9923 371.0
59.0591 381.0
59.126 388.0
59.1928 348.0
59.2597 372.0
59.3265 351.0
59.3933 376.0
59.4602 373.0
59.527 402.0
59.5939 341.0
59.6607 371.0
59.7276 383.0
59.7944 363.0
59.8613 378.0
59.9281 401.0
59.995 413.0
60.0618 419.0
60.1286 410.0
60.1955 392.0
60.2623 430.0
60.3292 409.0
60.396 381.0
60.4629 355.0
60.5297 401.0
60.5966 395.0
60.6634 386.0
60.7302 379.0
60.7971 401.0
60.8639 381.0
60.9308 384.0
60.9976 381.0
61.0645 341.0
61.1313 395.0
61.1982 395.0
61.265 389.0
61.3319 375.0
61.3987 351.0
61.4655 333.0
61.5324 368.0
61.5992 401.0
61.6661 408.0
61.7329 397.0
61.7998 410.0
61.8666 386.0
61.9335 406.0
62.0003 422.0
62.0672 433.0
62.134 350.0
62.2008 388.0
62.2677 386.0
62.3345 353.0
62.4014 362.0
62.4682 422.0
62.5351 365.0
62.6019 353.0
62.6688 376.0
62.7356 386.0
62.8024 349.0
62.8693 364.0
62.9361 341.0
63.003 366.0
63.0698 373.0
63.1367 365.0
63.2035 407.0
63.2704 375.0
63.3372 367.0
63.4041 362.0
63.4709 368.0
63.5377 336.0
63.6046 378.0
63.6714 364.0
63.7383 351.0
63.8051 362.0
63.872 358.0
63.9388 365.0
64.0057 351.0
64.0725 370.0
64.1393 339.0
64.2062 373.0
64.273 382.0
64.3399 357.0
64.4067 356.0
64.4736 386.0
64.5404 358.0
64.6073 338.0
64.6741 347.0
64.741 320.0
64.8078 339.0
64.8746 362.0
64.9415 340.0
65.0083 332.0
65.0752 346.0
65.142 347.0
65.2089 380.0
65.2757 335.0
65.3426 354.0
65.4094 331.0
65.4762 357.0
65.5431 328.0
65.6099 322.0
65.6768 349.0
65.7436 361.0
65.8105 348.0
65.8773 332.0
65.9442 349.0
66.011 339.0
66.0779 355.0
66.1447 348.0
66.2115 375.0
66.2784 371.0
66.3452 368.0
66.4121 396.0
66.4789 363.0
66.5458 325.0
66.6126 384.0
66.6795 373.0
66.7463 369.0
66.8132 376.0
66.88 375.0
66.9468 392.0
67.0137 378.0
67.0805 443.0
67.1474 423.0
67.2142 398.0
67.2811 424.0
67.3479 386.0
67.4148 365.0
67.4816 354.0
67.5484 404.0
67.6153 433.0
67.6821 371.0
67.749 338.0
67.8158 356.0
67.8827 397.0
67.9495 361.0
68.0164 372.0
68.0832 370.0
68.1501 371.0
68.2169 348.0
68.2837 369.0
68.3506 381.0
68.4174 354.0
68.4843 380.0
68.5511 330.0
68.618 404.0
68.6848 378.0
68.7517 324.0
68.8185 337.0
68.8853 335.0
68.9522 334.0
69.019 372.0
69.0859 317.0
69.1527 350.0
69.2196 348.0
69.2864 367.0
69.3533 338.0
69.4201 347.0
69.487 352.0
69.5538 353.0
69.6206 349.0
69.6875 335.0
69.7543 375.0
69.8212 352.0
69.888 380.0
69.9549 350.0
70.0217 340.0
70.0886 356.0
70.1554 353.0
70.2222 366.0
70.2891 355.0
70.3559 355.0
70.4228 346.0
70.4896 379.0
70.5565 427.0
70.6233 385.0
70.6902 346.0
70.757 345.0
70.8239 358.0
70.8907 375.0
70.9575 369.0
71.0244 340.0
71.0912 378.0
71.1581 376.0
71.2249 365.0
71.2918 337.0
71.3586 329.0
71.4255 361.0
71.4923 336.0
71.5592 355.0
71.626 321.0
71.6928 368.0
71.7597 346.0
71.8265 348.0
71.8934 323.0
71.9602 338.0
72.0271 311.0
72.0939 307.0
72.1608 340.0
72.2276 345.0
72.2944 310.0
72.3613 353.0
72.4281 350.0
72.495 338.0
72.5618 324.0
72.6287 308.0
72.6955 329.0
72.7624 325.0
72.8292 348.0
72.8961 344.0
72.9629 291.0
73.0297 321.0
73.0966 332.0
73.1634 363.0
73.2303 349.0
73.2971 313.0
73.364 371.0
73.4308 348.0
73.4977 333.0
73.5645 337.0
73.6313 323.0
73.6982 362.0
73.765 305.0
73.8319 335.0
73.8987 309.0
73.9656 344.0
74.0324 331.0
74.0993 332.0
74.1661 323.0
74.233 342.0
74.2998 301.0
74.3666 332.0
74.4335 344.0
74.5003 292.0
74.5672 314.0
74.634 297.0
74.7009 317.0
74.7677 339.0
74.8346 320.0
74.9014 269.0
74.9683 317.0
75.0351 322.0
75.1019 319.0
75.1688 322.0
75.2356 295.0
75.3025 303.0
75.3693 335.0
75.4362 306.0
75.503 289.0
75.5699 302.0
75.6367 307.0
75.7035 262.0
75.7704 333.0
75.8372 318.0
75.9041 292.0
75.9709 285.0
76.0378 285.0
76.1046 306.0
76.1715 321.0
76.2383 316.0
76.3052 299.0
76.372 294.0
76.4388 288.0
76.5057 328.0
76.5725 298.0
76.6394 283.0
76.7062 284.0
76.7731 282.0
76.8399 332.0
76.9068 320.0
76.9736 323.0
77.0404 294.0
77.1073 286.0
77.1741 301.0
77.241 282.0
77.3078 287.0
77.3747 288.0
77.4415 271.0
77.5084 263.0
77.5752 264.0
77.6421 295.0
77.7089 279.0
77.7757 261.0
77.8426 291.0
77.9094 320.0
77.9763 294.0
78.0431 300.0
78.11 273.0
78.1768 271.0
78.2437 275.0
78.3105 270.0
78.3773 288.0
78.4442 287.0
78.511 271.0
78.5779 252.0
78.6447 282.0
78.7116 267.0
78.7784 264.0
78.8453 282.0
78.9121 278.0
78.979 291.0
79.0458 289.0
79.1126 241.0
79.1795 278.0
79.2463 278.0
79.3132 287.0
79.38 264.0
79.4469 253.0
79.5137 231.0
79.5806 237.0
79.6474 268.0
79.7143 284.0
79.7811 268.0
79.8479 256.0
79.9148 270.0
79.9816 264.0
80.0485 227.0
80.1153 278.0
80.1822 269.0
80.249 251.0
80.3159 274.0
80.3827 235.0
80.4495 233.0
80.5164 276.0
80.5832 247.0
80.6501 242.0
80.7169 250.0
80.7838 240.0
80.8506 255.0
80.9175 224.0
80.9843 276.0
81.0512 257.0
81.118 259.0
81.1848 253.0
81.2517 225.0
81.3185 248.0
81.3854 257.0
81.4522 252.0
81.5191 248.0
81.5859 228.0
81.6528 236.0
81.7196 250.0
81.7864 220.0
81.8533 224.0
81.9201 238.0
81.987 217.0
82.0538 246.0
82.1207 245.0
82.1875 258.0
82.2544 248.0
82.3212 217.0
82.3881 224.0
82.4549 238.0
82.5217 264.0
82.5886 243.0
82.6554 200.0
82.7223 225.0
82.7891 243.0
82.856 203.0
82.9228 200.0
82.9897 232.0
83.0565 219.0
83.1233 192.0
83.1902 195.0
83.257 226.0
83.3239 225.0
83.3907 221.0
83.4576 214.0
83.5244 236.0
83.5913 221.0
83.6581 193.0
83.725 262.0
83.7918 220.0
83.8586 242.0
83.9255 217.0
83.9923 242.0
84.0592 215.0
84.126 237.0
84.1929 195.0
84.2597 203.0
84.3266 222.0
84.3934 230.0
84.4603 209.0
84.5271 200.0
84.5939 201.0
84.6608 192.0
84.7276 217.0
84.7945 208.0
84.8613 221.0
84.9282 203.0
84.995 217.0
85.0619 221.0
85.1287 193.0
85.1955 229.0
85.2624 216.0
85.3292 198.0
85.3961 180.0
85.4629 201.0
85.5298 198.0
85.5966 190.0
85.6635 191.0
85.7303 160.0
85.7972 188.0
85.864 196.0
85.9308 190.0
85.9977 173.0
86.0645 199.0
86.1314 178.0
86.1982 180.0
86.2651 197.0
86.3319 184.0
86.3988 185.0
86.4656 175.0
86.5324 182.0
86.5993 193.0
86.6661 213.0
86.733 180.0
86.7998 189.0
86.8667 210.0
86.9335 203.0
87.0004 181.0
87.0672 210.0
87.1341 210.0
87.2009 199.0
87.2677 190.0
87.3346 173.0
87.4014 184.0
87.4683 199.0
87.5351 175.0
87.602 213.0
87.6688 195.0
87.7357 197.0
87.8025 174.0
87.8693 163.0
87.9362 194.0
88.003 205.0
88.0699 193.0
88.1367 178.0
88.2036 209.0
88.2704 189.0
88.3373 164.0
88.4041 203.0
88.471 154.0
88.5378 203.0
88.6046 193.0
88.6715 169.0
88.7383 161.0
88.8052 186.0
88.872 204.0
88.9389 189.0
89.0057 175.0
89.0726 189.0
89.1394 191.0
89.2063 170.0
89.2731 180.0
89.3399 168.0
89.4068 204.0
89.4736 168.0
89.5405 159.0
89.6073 186.0
89.6742 160.0
89.741 165.0
89.8079 173.0
89.8747 177.0
89.9415 178.0