File: code/XRD_Analysis/Zeolites/data_files/SAPO-34/calc/20241114_SAPO-34-2_calc_Probe-2.xy
4.98146 955.0
5.0483 947.0
5.11515 892.0
5.18199 911.0
5.24884 902.0
5.31568 857.0
5.38253 842.0
5.44937 903.0
5.51622 861.0
5.58306 816.0
5.64991 845.0
5.71675 831.0
5.7836 855.0
5.85044 812.0
5.91729 828.0
5.98413 791.0
6.05098 789.0
6.11782 789.0
6.18467 777.0
6.25151 727.0
6.31836 724.0
6.3852 741.0
6.45205 646.0
6.51889 776.0
6.58574 705.0
6.65258 723.0
6.71943 701.0
6.78627 691.0
6.85312 691.0
6.91996 675.0
6.98681 712.0
7.05365 686.0
7.1205 743.0
7.18734 643.0
7.25419 668.0
7.32103 660.0
7.38788 651.0
7.45472 653.0
7.52157 627.0
7.58841 661.0
7.65526 667.0
7.7221 638.0
7.78895 648.0
7.85579 678.0
7.92264 636.0
7.98948 651.0
8.05633 611.0
8.12317 582.0
8.19002 612.0
8.25686 627.0
8.32371 628.0
8.39055 597.0
8.4574 605.0
8.52424 585.0
8.59109 602.0
8.65793 615.0
8.72478 603.0
8.79162 595.0
8.85847 585.0
8.92532 594.0
8.99216 618.0
9.05901 635.0
9.12585 769.0
9.1927 801.0
9.25954 928.0
9.32639 1301.0
9.39323 2285.0
9.46008 4898.0
9.52692 10025.0
9.59377 10548.0
9.66061 5179.0
9.72746 2369.0
9.7943 1662.0
9.86115 1300.0
9.92799 1144.0
9.99484 1065.0
10.0617 1012.0
10.1285 880.0
10.1954 781.0
10.2622 781.0
10.3291 690.0
10.3959 675.0
10.4628 676.0
10.5296 740.0
10.5964 756.0
10.6633 790.0
10.7301 738.0
10.797 691.0
10.8638 638.0
10.9307 602.0
10.9975 595.0
11.0644 595.0
11.1312 598.0
11.198 587.0
11.2649 580.0
11.3317 601.0
11.3986 572.0
11.4654 580.0
11.5323 550.0
11.5991 559.0
11.666 527.0
11.7328 527.0
11.7997 571.0
11.8665 528.0
11.9333 563.0
12.0002 545.0
12.067 591.0
12.1339 569.0
12.2007 590.0
12.2676 542.0
12.3344 594.0
12.4013 619.0
12.4681 603.0
12.5349 607.0
12.6018 618.0
12.6686 673.0
12.7355 774.0
12.8023 970.0
12.8692 1547.0
12.936 2708.0
13.0029 3086.0
13.0697 1940.0
13.1366 1283.0
13.2034 860.0
13.2702 754.0
13.3371 667.0
13.4039 674.0
13.4708 644.0
13.5376 665.0
13.6045 585.0
13.6713 595.0
13.7382 559.0
13.805 520.0
13.8719 542.0
13.9387 543.0
14.0055 597.0
14.0724 666.0
14.1392 588.0
14.2061 474.0
14.2729 514.0
14.3398 497.0
14.4066 481.0
14.4735 476.0
14.5403 461.0
14.6071 491.0
14.674 483.0
14.7408 483.0
14.8077 471.0
14.8745 440.0
14.9414 457.0
15.0082 472.0
15.0751 533.0
15.1419 510.0
15.2088 539.0
15.2756 553.0
15.3424 541.0
15.4093 642.0
15.4761 686.0
15.543 645.0
15.6098 695.0
15.6767 605.0
15.7435 610.0
15.8104 683.0
15.8772 678.0
15.944 789.0
16.0109 981.0
16.0777 1473.0
16.1446 1972.0
16.2114 1598.0
16.2783 1096.0
16.3451 788.0
16.412 693.0
16.4788 675.0
16.5457 723.0
16.6125 679.0
16.6793 742.0
16.7462 820.0
16.813 839.0
16.8799 919.0
16.9467 888.0
17.0136 945.0
17.0804 885.0
17.1473 919.0
17.2141 878.0
17.2809 868.0
17.3478 898.0
17.4146 774.0
17.4815 795.0
17.5483 725.0
17.6152 774.0
17.682 830.0
17.7489 986.0
17.8157 1193.0
17.8826 1366.0
17.9494 1352.0
18.0162 1078.0
18.0831 947.0
18.1499 745.0
18.2168 742.0
18.2836 752.0
18.3505 697.0
18.4173 683.0
18.4842 701.0
18.551 678.0
18.6179 698.0
18.6847 663.0
18.7515 693.0
18.8184 719.0
18.8852 694.0
18.9521 798.0
19.0189 835.0
19.0858 986.0
19.1526 1238.0
19.2195 1283.0
19.2863 1141.0
19.3531 1045.0
19.42 964.0
19.4868 927.0
19.5537 872.0
19.6205 871.0
19.6874 964.0
19.7542 923.0
19.8211 910.0
19.8879 987.0
19.9548 926.0
20.0216 991.0
20.0884 951.0
20.1553 1013.0
20.2221 893.0
20.289 980.0
20.3558 1015.0
20.4227 1024.0
20.4895 1091.0
20.5564 1326.0
20.6232 1765.0
20.69 2851.0
20.7569 4349.0
20.8237 4193.0
20.8906 2774.0
20.9574 1954.0
21.0243 1575.0
21.0911 1337.0
21.158 1201.0
21.2248 1148.0
21.2917 1072.0
21.3585 1138.0
21.4253 1100.0
21.4922 1053.0
21.559 1032.0
21.6259 920.0
21.6927 818.0
21.7596 784.0
21.8264 793.0
21.8933 745.0
21.9601 722.0
22.0269 786.0
22.0938 836.0
22.1606 821.0
22.2275 825.0
22.2943 788.0
22.3612 802.0
22.428 787.0
22.4949 816.0
22.5617 923.0
22.6286 913.0
22.6954 931.0
22.7622 889.0
22.8291 901.0
22.8959 913.0
22.9628 900.0
23.0296 913.0
23.0965 976.0
23.1633 1214.0
23.2302 1444.0
23.297 1407.0
23.3639 1204.0
23.4307 1035.0
23.4975 987.0
23.5644 974.0
23.6312 987.0
23.6981 1072.0
23.7649 1062.0
23.8318 1115.0
23.8986 1168.0
23.9655 1235.0
24.0323 1248.0
24.0991 1298.0
24.166 1258.0
24.2328 1251.0
24.2997 1158.0
24.3665 1162.0
24.4334 1167.0
24.5002 1100.0
24.5671 1057.0
24.6339 1062.0
24.7008 1037.0
24.7676 981.0
24.8344 1058.0
24.9013 1121.0
24.9681 1292.0
25.035 1493.0
25.1018 1595.0
25.1687 1602.0
25.2355 1364.0
25.3024 1338.0
25.3692 1248.0
25.436 1196.0
25.5029 1142.0
25.5697 1102.0
25.6366 1112.0
25.7034 1074.0
25.7703 1276.0
25.8371 1205.0
25.904 1258.0
25.9708 1468.0
26.0377 1711.0
26.1045 2053.0
26.1713 2194.0
26.2382 1913.0
26.305 1660.0
26.3719 1423.0
26.4387 1441.0
26.5056 1338.0
26.5724 1292.0
26.6393 1136.0
26.7061 1137.0
26.773 1058.0
26.8398 1103.0
26.9066 1058.0
26.9735 1017.0
27.0403 1068.0
27.1072 995.0
27.174 977.0
27.2409 913.0
27.3077 981.0
27.3746 992.0
27.4414 957.0
27.5082 984.0
27.5751 949.0
27.6419 1011.0
27.7088 1009.0
27.7756 1111.0
27.8425 1090.0
27.9093 1183.0
27.9762 1115.0
28.043 1144.0
28.1099 1112.0
28.1767 1087.0
28.2435 1102.0
28.3104 1168.0
28.3772 1278.0
28.4441 1143.0
28.5109 1122.0
28.5778 1097.0
28.6446 1128.0
28.7115 1039.0
28.7783 1031.0
28.8451 1055.0
28.912 1022.0
28.9788 1029.0
29.0457 1056.0
29.1125 1006.0
29.1794 951.0
29.2462 1015.0
29.3131 978.0
29.3799 1031.0
29.4468 1028.0
29.5136 959.0
29.5804 1027.0
29.6473 1056.0
29.7141 1087.0
29.781 1194.0
29.8478 1208.0
29.9147 1142.0
29.9815 1193.0
30.0484 1104.0
30.1152 1157.0
30.182 1262.0
30.2489 1232.0
30.3157 1258.0
30.3826 1385.0
30.4494 1319.0
30.5163 1394.0
30.5831 1456.0
30.65 1615.0
30.7168 1832.0
30.7837 2115.0
30.8505 2618.0
30.9173 2988.0
30.9842 2754.0
31.051 2468.0
31.1179 2334.0
31.1847 2376.0
31.2516 2378.0
31.3184 2349.0
31.3853 2227.0
31.4521 1939.0
31.519 1820.0
31.5858 1619.0
31.6526 1512.0
31.7195 1462.0
31.7863 1354.0
31.8532 1430.0
31.92 1324.0
31.9869 1304.0
32.0537 1153.0
32.1206 1163.0
32.1874 1111.0
32.2542 1054.0
32.3211 1045.0
32.3879 1123.0
32.4548 1027.0
32.5216 1036.0
32.5885 1042.0
32.6553 1052.0
32.7222 1100.0
32.789 1031.0
32.8559 994.0
32.9227 992.0
32.9895 959.0
33.0564 937.0
33.1232 873.0
33.1901 875.0
33.2569 862.0
33.3238 817.0
33.3906 772.0
33.4575 763.0
33.5243 797.0
33.5911 817.0
33.658 820.0
33.7248 800.0
33.7917 767.0
33.8585 793.0
33.9254 698.0
33.9922 769.0
34.0591 713.0
34.1259 731.0
34.1928 721.0
34.2596 713.0
34.3264 677.0
34.3933 658.0
34.4601 704.0
34.527 703.0
34.5938 704.0
34.6607 678.0
34.7275 777.0
34.7944 835.0
34.8612 869.0
34.928 744.0
34.9949 715.0
35.0617 657.0
35.1286 601.0
35.1954 663.0
35.2623 628.0
35.3291 615.0
35.396 594.0
35.4628 611.0
35.5297 574.0
35.5965 547.0
35.6633 585.0
35.7302 568.0
35.797 557.0
35.8639 502.0
35.9307 545.0
35.9976 533.0
36.0644 554.0
36.1313 559.0
36.1981 537.0
36.265 598.0
36.3318 571.0
36.3986 605.0
36.4655 605.0
36.5323 548.0
36.5992 559.0
36.666 505.0
36.7329 512.0
36.7997 517.0
36.8666 540.0
36.9334 440.0
37.0002 479.0
37.0671 454.0
37.1339 442.0
37.2008 454.0
37.2676 443.0
37.3345 457.0
37.4013 474.0
37.4682 441.0
37.535 441.0
37.6019 432.0
37.6687 445.0
37.7355 453.0
37.8024 462.0
37.8692 441.0
37.9361 449.0
38.0029 428.0
38.0698 465.0
38.1366 432.0
38.2035 433.0
38.2703 454.0
38.3371 417.0
38.404 427.0
38.4708 425.0
38.5377 445.0
38.6045 475.0
38.6714 469.0
38.7382 460.0
38.8051 396.0
38.8719 411.0
38.9388 465.0
39.0056 469.0
39.0724 429.0
39.1393 448.0
39.2061 438.0
39.273 440.0
39.3398 494.0
39.4067 432.0
39.4735 525.0
39.5404 508.0
39.6072 461.0
39.6741 439.0
39.7409 511.0
39.8077 482.0
39.8746 500.0
39.9414 497.0
40.0083 517.0
40.0751 474.0
40.142 519.0
40.2088 460.0
40.2757 522.0
40.3425 486.0
40.4093 442.0
40.4762 454.0
40.543 435.0
40.6099 434.0
40.6767 490.0
40.7436 433.0
40.8104 457.0
40.8773 446.0
40.9441 481.0
41.011 439.0
41.0778 470.0
41.1446 427.0
41.2115 417.0
41.2783 412.0
41.3452 416.0
41.412 453.0
41.4789 448.0
41.5457 423.0
41.6126 413.0
41.6794 423.0
41.7462 442.0
41.8131 439.0
41.8799 410.0
41.9468 442.0
42.0136 453.0
42.0805 434.0
42.1473 419.0
42.2142 448.0
42.281 457.0
42.3479 441.0
42.4147 445.0
42.4815 447.0
42.5484 471.0
42.6152 426.0
42.6821 439.0
42.7489 443.0
42.8158 451.0
42.8826 488.0
42.9495 451.0
43.0163 475.0
43.0831 472.0
43.15 548.0
43.2168 508.0
43.2837 480.0
43.3505 495.0
43.4174 505.0
43.4842 487.0
43.5511 459.0
43.6179 455.0
43.6848 498.0
43.7516 485.0
43.8184 518.0
43.8853 516.0
43.9521 482.0
44.019 436.0
44.0858 443.0
44.1527 440.0
44.2195 442.0
44.2864 432.0
44.3532 401.0
44.4201 428.0
44.4869 416.0
44.5537 414.0
44.6206 425.0
44.6874 435.0
44.7543 433.0
44.8211 430.0
44.888 420.0
44.9548 458.0
45.0217 436.0
45.0885 422.0
45.1553 400.0
45.2222 440.0
45.289 459.0
45.3559 395.0
45.4227 425.0
45.4896 422.0
45.5564 395.0
45.6233 384.0
45.6901 423.0
45.757 400.0
45.8238 470.0
45.8906 401.0
45.9575 399.0
46.0243 387.0
46.0912 403.0
46.158 391.0
46.2249 375.0
46.2917 372.0
46.3586 403.0
46.4254 430.0
46.4922 392.0
46.5591 394.0
46.6259 412.0
46.6928 412.0
46.7596 383.0
46.8265 419.0
46.8933 361.0
46.9602 432.0
47.027 430.0
47.0939 427.0
47.1607 402.0
47.2275 460.0
47.2944 435.0
47.3612 401.0
47.4281 464.0
47.4949 431.0
47.5618 442.0
47.6286 417.0
47.6955 436.0
47.7623 409.0
47.8291 455.0
47.896 432.0
47.9628 481.0
48.0297 464.0
48.0965 477.0
48.1634 458.0
48.2302 508.0
48.2971 482.0
48.3639 441.0
48.4308 433.0
48.4976 440.0
48.5644 455.0
48.6313 433.0
48.6981 428.0
48.765 434.0
48.8318 460.0
48.8987 397.0
48.9655 478.0
49.0324 457.0
49.0992 507.0
49.1661 568.0
49.2329 568.0
49.2997 601.0
49.3666 590.0
49.4334 610.0
49.5003 592.0
49.5671 598.0
49.634 520.0
49.7008 498.0
49.7677 533.0
49.8345 531.0
49.9013 518.0
49.9682 489.0
50.035 491.0
50.1019 507.0
50.1687 464.0
50.2356 453.0
50.3024 434.0
50.3693 477.0
50.4361 470.0
50.503 497.0
50.5698 485.0
50.6366 510.0
50.7035 525.0
50.7703 462.0
50.8372 476.0
50.904 480.0
50.9709 498.0
51.0377 492.0
51.1046 488.0
51.1714 525.0
51.2382 549.0
51.3051 547.0
51.3719 511.0
51.4388 464.0
51.5056 473.0
51.5725 442.0
51.6393 510.0
51.7062 449.0
51.773 429.0
51.8399 481.0
51.9067 485.0
51.9735 493.0
52.0404 492.0
52.1072 432.0
52.1741 453.0
52.2409 432.0
52.3078 492.0
52.3746 464.0
52.4415 466.0
52.5083 445.0
52.5751 425.0
52.642 433.0
52.7088 441.0
52.7757 466.0
52.8425 409.0
52.9094 401.0
52.9762 469.0
53.0431 427.0
53.1099 432.0
53.1768 473.0
53.2436 402.0
53.3104 431.0
53.3773 454.0
53.4441 433.0
53.511 450.0
53.5778 463.0
53.6447 439.0
53.7115 458.0
53.7784 483.0
53.8452 491.0
53.9121 482.0
53.9789 467.0
54.0457 464.0
54.1126 460.0
54.1794 451.0
54.2463 456.0
54.3131 450.0
54.38 434.0
54.4468 418.0
54.5137 442.0
54.5805 429.0
54.6473 419.0
54.7142 428.0
54.781 453.0
54.8479 436.0
54.9147 411.0
54.9816 396.0
55.0484 389.0
55.1153 395.0
55.1821 408.0
55.249 410.0
55.3158 448.0
55.3826 441.0
55.4495 429.0
55.5163 425.0
55.5832 460.0
55.65 396.0
55.7169 417.0
55.7837 413.0
55.8506 391.0
55.9174 368.0
55.9842 399.0
56.0511 393.0
56.1179 423.0
56.1848 423.0
56.2516 411.0
56.3185 442.0
56.3853 409.0
56.4522 396.0
56.519 402.0
56.5859 430.0
56.6527 423.0
56.7195 416.0
56.7864 378.0
56.8532 379.0
56.9201 399.0
56.9869 407.0
57.0538 376.0
57.1206 404.0
57.1875 372.0
57.2543 391.0
57.3212 379.0
57.388 412.0
57.4548 409.0
57.5217 363.0
57.5885 371.0
57.6554 372.0
57.7222 385.0
57.7891 386.0
57.8559 400.0
57.9228 346.0
57.9896 342.0
58.0564 388.0
58.1233 369.0
58.1901 336.0
58.257 355.0
58.3238 356.0
58.3907 365.0
58.4575 365.0
58.5244 349.0
58.5912 330.0
58.6581 348.0
58.7249 331.0
58.7917 326.0
58.8586 382.0
58.9254 397.0
58.9923 317.0
59.0591 355.0
59.126 330.0
59.1928 362.0
59.2597 372.0
59.3265 361.0
59.3933 372.0
59.4602 367.0
59.527 317.0
59.5939 383.0
59.6607 363.0
59.7276 351.0
59.7944 393.0
59.8613 393.0
59.9281 396.0
59.995 366.0
60.0618 385.0
60.1286 373.0
60.1955 414.0
60.2623 392.0
60.3292 391.0
60.396 372.0
60.4629 384.0
60.5297 375.0
60.5966 365.0
60.6634 415.0
60.7302 423.0
60.7971 373.0
60.8639 357.0
60.9308 420.0
60.9976 389.0
61.0645 366.0
61.1313 393.0
61.1982 345.0
61.265 366.0
61.3319 367.0
61.3987 368.0
61.4655 377.0
61.5324 356.0
61.5992 369.0
61.6661 361.0
61.7329 401.0
61.7998 398.0
61.8666 381.0
61.9335 388.0
62.0003 366.0
62.0672 367.0
62.134 395.0
62.2008 368.0
62.2677 354.0
62.3345 389.0
62.4014 363.0
62.4682 347.0
62.5351 337.0
62.6019 361.0
62.6688 376.0
62.7356 381.0
62.8024 353.0
62.8693 356.0
62.9361 352.0
63.003 360.0
63.0698 349.0
63.1367 362.0
63.2035 307.0
63.2704 346.0
63.3372 309.0
63.4041 361.0
63.4709 341.0
63.5377 352.0
63.6046 349.0
63.6714 370.0
63.7383 310.0
63.8051 355.0
63.872 373.0
63.9388 334.0
64.0057 355.0
64.0725 341.0
64.1393 346.0
64.2062 309.0
64.273 342.0
64.3399 320.0
64.4067 340.0
64.4736 333.0
64.5404 379.0
64.6073 334.0
64.6741 323.0
64.741 336.0
64.8078 344.0
64.8746 371.0
64.9415 344.0
65.0083 375.0
65.0752 330.0
65.142 332.0
65.2089 337.0
65.2757 376.0
65.3426 323.0
65.4094 391.0
65.4762 314.0
65.5431 319.0
65.6099 325.0
65.6768 316.0
65.7436 345.0
65.8105 317.0
65.8773 358.0
65.9442 340.0
66.011 317.0
66.0779 345.0
66.1447 349.0
66.2115 342.0
66.2784 332.0
66.3452 346.0
66.4121 363.0
66.4789 334.0
66.5458 368.0
66.6126 358.0
66.6795 389.0
66.7463 364.0
66.8132 367.0
66.88 392.0
66.9468 371.0
67.0137 375.0
67.0805 354.0
67.1474 424.0
67.2142 389.0
67.2811 342.0
67.3479 363.0
67.4148 364.0
67.4816 384.0
67.5484 356.0
67.6153 371.0
67.6821 361.0
67.749 366.0
67.8158 317.0
67.8827 331.0
67.9495 340.0
68.0164 348.0
68.0832 342.0
68.1501 362.0
68.2169 363.0
68.2837 306.0
68.3506 355.0
68.4174 402.0
68.4843 366.0
68.5511 325.0
68.618 326.0
68.6848 357.0
68.7517 340.0
68.8185 353.0
68.8853 318.0
68.9522 320.0
69.019 347.0
69.0859 323.0
69.1527 352.0
69.2196 348.0
69.2864 328.0
69.3533 326.0
69.4201 332.0
69.487 334.0
69.5538 331.0
69.6206 362.0
69.6875 332.0
69.7543 361.0
69.8212 393.0
69.888 334.0
69.9549 334.0
70.0217 339.0
70.0886 326.0
70.1554 322.0
70.2222 348.0
70.2891 310.0
70.3559 334.0
70.4228 330.0
70.4896 316.0
70.5565 347.0
70.6233 354.0
70.6902 320.0
70.757 347.0
70.8239 353.0
70.8907 340.0
70.9575 364.0
71.0244 320.0
71.0912 310.0
71.1581 353.0
71.2249 362.0
71.2918 352.0
71.3586 339.0
71.4255 317.0
71.4923 311.0
71.5592 339.0
71.626 356.0
71.6928 330.0
71.7597 306.0
71.8265 337.0
71.8934 338.0
71.9602 351.0
72.0271 309.0
72.0939 325.0
72.1608 313.0
72.2276 339.0
72.2944 306.0
72.3613 317.0
72.4281 360.0
72.495 297.0
72.5618 292.0
72.6287 294.0
72.6955 340.0
72.7624 347.0
72.8292 295.0
72.8961 295.0
72.9629 323.0
73.0297 337.0
73.0966 345.0
73.1634 332.0
73.2303 311.0
73.2971 324.0
73.364 314.0
73.4308 341.0
73.4977 335.0
73.5645 324.0
73.6313 337.0
73.6982 315.0
73.765 330.0
73.8319 300.0
73.8987 293.0
73.9656 287.0
74.0324 326.0
74.0993 293.0
74.1661 335.0
74.233 285.0
74.2998 285.0
74.3666 256.0
74.4335 295.0
74.5003 317.0
74.5672 317.0
74.634 344.0
74.7009 316.0
74.7677 297.0
74.8346 301.0
74.9014 292.0
74.9683 260.0
75.0351 276.0
75.1019 304.0
75.1688 302.0
75.2356 279.0
75.3025 300.0
75.3693 287.0
75.4362 287.0
75.503 300.0
75.5699 321.0
75.6367 278.0
75.7035 291.0
75.7704 295.0
75.8372 288.0
75.9041 277.0
75.9709 321.0
76.0378 301.0
76.1046 260.0
76.1715 315.0
76.2383 261.0
76.3052 294.0
76.372 321.0
76.4388 294.0
76.5057 316.0
76.5725 307.0
76.6394 284.0
76.7062 307.0
76.7731 293.0
76.8399 280.0
76.9068 263.0
76.9736 257.0
77.0404 272.0
77.1073 246.0
77.1741 287.0
77.241 240.0
77.3078 235.0
77.3747 262.0
77.4415 284.0
77.5084 258.0
77.5752 260.0
77.6421 260.0
77.7089 264.0
77.7757 286.0
77.8426 264.0
77.9094 254.0
77.9763 284.0
78.0431 260.0
78.11 274.0
78.1768 259.0
78.2437 259.0
78.3105 277.0
78.3773 282.0
78.4442 285.0
78.511 272.0
78.5779 270.0
78.6447 272.0
78.7116 228.0
78.7784 252.0
78.8453 275.0
78.9121 258.0
78.979 247.0
79.0458 272.0
79.1126 267.0
79.1795 267.0
79.2463 271.0
79.3132 227.0
79.38 254.0
79.4469 248.0
79.5137 245.0
79.5806 256.0
79.6474 280.0
79.7143 266.0
79.7811 274.0
79.8479 224.0
79.9148 242.0
79.9816 248.0
80.0485 245.0
80.1153 244.0
80.1822 253.0
80.249 263.0
80.3159 254.0
80.3827 268.0
80.4495 223.0
80.5164 245.0
80.5832 236.0
80.6501 241.0
80.7169 242.0
80.7838 260.0
80.8506 240.0
80.9175 201.0
80.9843 229.0
81.0512 229.0
81.118 244.0
81.1848 258.0
81.2517 251.0
81.3185 251.0
81.3854 214.0
81.4522 242.0
81.5191 209.0
81.5859 222.0
81.6528 245.0
81.7196 247.0
81.7864 222.0
81.8533 244.0
81.9201 243.0
81.987 207.0
82.0538 227.0
82.1207 229.0
82.1875 201.0
82.2544 239.0
82.3212 210.0
82.3881 241.0
82.4549 219.0
82.5217 230.0
82.5886 224.0
82.6554 209.0
82.7223 222.0
82.7891 220.0
82.856 235.0
82.9228 189.0
82.9897 209.0
83.0565 222.0
83.1233 185.0
83.1902 198.0
83.257 215.0
83.3239 219.0
83.3907 219.0
83.4576 211.0
83.5244 182.0
83.5913 198.0
83.6581 195.0
83.725 203.0
83.7918 211.0
83.8586 228.0
83.9255 212.0
83.9923 182.0
84.0592 196.0
84.126 207.0
84.1929 193.0
84.2597 215.0
84.3266 182.0
84.3934 188.0
84.4603 197.0
84.5271 205.0
84.5939 219.0
84.6608 208.0
84.7276 214.0
84.7945 226.0
84.8613 194.0
84.9282 210.0
84.995 186.0
85.0619 184.0
85.1287 196.0
85.1955 203.0
85.2624 226.0
85.3292 210.0
85.3961 196.0
85.4629 204.0
85.5298 199.0
85.5966 207.0
85.6635 199.0
85.7303 198.0
85.7972 210.0
85.864 180.0
85.9308 188.0
85.9977 200.0
86.0645 170.0
86.1314 207.0
86.1982 186.0
86.2651 174.0
86.3319 166.0
86.3988 181.0
86.4656 207.0
86.5324 204.0
86.5993 170.0
86.6661 189.0
86.733 189.0
86.7998 168.0
86.8667 183.0
86.9335 179.0
87.0004 176.0
87.0672 170.0
87.1341 172.0
87.2009 161.0
87.2677 178.0
87.3346 185.0
87.4014 176.0
87.4683 198.0
87.5351 180.0
87.602 160.0
87.6688 169.0
87.7357 172.0
87.8025 169.0
87.8693 166.0
87.9362 170.0
88.003 182.0
88.0699 175.0
88.1367 158.0
88.2036 155.0
88.2704 159.0
88.3373 182.0
88.4041 180.0
88.471 177.0
88.5378 135.0
88.6046 190.0
88.6715 155.0
88.7383 173.0
88.8052 154.0
88.872 161.0
88.9389 184.0
89.0057 193.0
89.0726 138.0
89.1394 177.0
89.2063 176.0
89.2731 155.0
89.3399 166.0
89.4068 163.0
89.4736 155.0
89.5405 174.0
89.6073 158.0
89.6742 148.0
89.741 155.0
89.8079 165.0
89.8747 158.0
89.9415 179.0