File: code/XRD_Analysis/Zeolites/data_files/SAPO-34/calc/20241114_SAPO-34-2_calc_Probe-3.xy
4.98146 976.0
5.0483 925.0
5.11515 913.0
5.18199 937.0
5.24884 886.0
5.31568 856.0
5.38253 844.0
5.44937 784.0
5.51622 861.0
5.58306 799.0
5.64991 813.0
5.71675 824.0
5.7836 812.0
5.85044 776.0
5.91729 739.0
5.98413 732.0
6.05098 759.0
6.11782 754.0
6.18467 697.0
6.25151 751.0
6.31836 737.0
6.3852 676.0
6.45205 688.0
6.51889 680.0
6.58574 662.0
6.65258 706.0
6.71943 668.0
6.78627 636.0
6.85312 646.0
6.91996 654.0
6.98681 659.0
7.05365 634.0
7.1205 665.0
7.18734 586.0
7.25419 604.0
7.32103 666.0
7.38788 656.0
7.45472 689.0
7.52157 694.0
7.58841 598.0
7.65526 638.0
7.7221 578.0
7.78895 623.0
7.85579 620.0
7.92264 626.0
7.98948 564.0
8.05633 599.0
8.12317 575.0
8.19002 626.0
8.25686 537.0
8.32371 560.0
8.39055 602.0
8.4574 605.0
8.52424 552.0
8.59109 522.0
8.65793 576.0
8.72478 540.0
8.79162 556.0
8.85847 535.0
8.92532 529.0
8.99216 539.0
9.05901 535.0
9.12585 604.0
9.1927 572.0
9.25954 676.0
9.32639 709.0
9.39323 969.0
9.46008 1509.0
9.52692 3603.0
9.59377 7531.0
9.66061 11146.0
9.72746 6657.0
9.7943 1980.0
9.86115 1062.0
9.92799 929.0
9.99484 781.0
10.0617 752.0
10.1285 789.0
10.1954 740.0
10.2622 684.0
10.3291 675.0
10.3959 685.0
10.4628 706.0
10.5296 716.0
10.5964 662.0
10.6633 698.0
10.7301 721.0
10.797 725.0
10.8638 646.0
10.9307 661.0
10.9975 641.0
11.0644 566.0
11.1312 609.0
11.198 606.0
11.2649 585.0
11.3317 619.0
11.3986 551.0
11.4654 574.0
11.5323 571.0
11.5991 527.0
11.666 578.0
11.7328 518.0
11.7997 551.0
11.8665 531.0
11.9333 500.0
12.0002 581.0
12.067 523.0
12.1339 556.0
12.2007 517.0
12.2676 559.0
12.3344 520.0
12.4013 581.0
12.4681 603.0
12.5349 541.0
12.6018 531.0
12.6686 496.0
12.7355 559.0
12.8023 683.0
12.8692 806.0
12.936 1351.0
13.0029 2097.0
13.0697 2670.0
13.1366 1835.0
13.2034 888.0
13.2702 703.0
13.3371 689.0
13.4039 628.0
13.4708 697.0
13.5376 734.0
13.6045 770.0
13.6713 752.0
13.7382 570.0
13.805 511.0
13.8719 432.0
13.9387 478.0
14.0055 488.0
14.0724 612.0
14.1392 597.0
14.2061 535.0
14.2729 485.0
14.3398 461.0
14.4066 465.0
14.4735 466.0
14.5403 420.0
14.6071 477.0
14.674 500.0
14.7408 459.0
14.8077 506.0
14.8745 512.0
14.9414 482.0
15.0082 465.0
15.0751 446.0
15.1419 497.0
15.2088 482.0
15.2756 477.0
15.3424 512.0
15.4093 533.0
15.4761 485.0
15.543 489.0
15.6098 523.0
15.6767 526.0
15.7435 586.0
15.8104 528.0
15.8772 586.0
15.944 599.0
16.0109 681.0
16.0777 961.0
16.1446 1470.0
16.2114 2174.0
16.2783 2231.0
16.3451 1451.0
16.412 823.0
16.4788 649.0
16.5457 690.0
16.6125 701.0
16.6793 768.0
16.7462 737.0
16.813 888.0
16.8799 906.0
16.9467 965.0
17.0136 1141.0
17.0804 1251.0
17.1473 1260.0
17.2141 1205.0
17.2809 1122.0
17.3478 1048.0
17.4146 958.0
17.4815 872.0
17.5483 898.0
17.6152 820.0
17.682 815.0
17.7489 788.0
17.8157 932.0
17.8826 1041.0
17.9494 1040.0
18.0162 1182.0
18.0831 925.0
18.1499 852.0
18.2168 787.0
18.2836 670.0
18.3505 730.0
18.4173 744.0
18.4842 721.0
18.551 697.0
18.6179 728.0
18.6847 716.0
18.7515 627.0
18.8184 691.0
18.8852 670.0
18.9521 727.0
19.0189 708.0
19.0858 777.0
19.1526 913.0
19.2195 1232.0
19.2863 1253.0
19.3531 1036.0
19.42 849.0
19.4868 816.0
19.5537 740.0
19.6205 814.0
19.6874 850.0
19.7542 896.0
19.8211 861.0
19.8879 898.0
19.9548 920.0
20.0216 897.0
20.0884 879.0
20.1553 904.0
20.2221 910.0
20.289 963.0
20.3558 946.0
20.4227 946.0
20.4895 1032.0
20.5564 989.0
20.6232 1166.0
20.69 1791.0
20.7569 2907.0
20.8237 3923.0
20.8906 4014.0
20.9574 2566.0
21.0243 1550.0
21.0911 1313.0
21.158 1158.0
21.2248 1290.0
21.2917 1299.0
21.3585 1299.0
21.4253 1391.0
21.4922 1409.0
21.559 1477.0
21.6259 1379.0
21.6927 1228.0
21.7596 961.0
21.8264 848.0
21.8933 790.0
21.9601 773.0
22.0269 759.0
22.0938 747.0
22.1606 758.0
22.2275 826.0
22.2943 816.0
22.3612 834.0
22.428 855.0
22.4949 933.0
22.5617 869.0
22.6286 841.0
22.6954 885.0
22.7622 907.0
22.8291 864.0
22.8959 821.0
22.9628 907.0
23.0296 867.0
23.0965 915.0
23.1633 913.0
23.2302 1133.0
23.297 1381.0
23.3639 1532.0
23.4307 1325.0
23.4975 1062.0
23.5644 1090.0
23.6312 964.0
23.6981 1009.0
23.7649 1070.0
23.8318 1090.0
23.8986 1173.0
23.9655 1271.0
24.0323 1278.0
24.0991 1328.0
24.166 1383.0
24.2328 1366.0
24.2997 1390.0
24.3665 1375.0
24.4334 1288.0
24.5002 1226.0
24.5671 1269.0
24.6339 1203.0
24.7008 1159.0
24.7676 1185.0
24.8344 1168.0
24.9013 1213.0
24.9681 1226.0
25.035 1309.0
25.1018 1332.0
25.1687 1475.0
25.2355 1596.0
25.3024 1438.0
25.3692 1348.0
25.436 1208.0
25.5029 1190.0
25.5697 1207.0
25.6366 1203.0
25.7034 1156.0
25.7703 1123.0
25.8371 1238.0
25.904 1260.0
25.9708 1284.0
26.0377 1571.0
26.1045 1926.0
26.1713 2320.0
26.2382 2439.0
26.305 2006.0
26.3719 1654.0
26.4387 1418.0
26.5056 1330.0
26.5724 1350.0
26.6393 1312.0
26.7061 1254.0
26.773 1269.0
26.8398 1154.0
26.9066 1178.0
26.9735 1129.0
27.0403 1114.0
27.1072 1003.0
27.174 1076.0
27.2409 1003.0
27.3077 957.0
27.3746 1042.0
27.4414 1003.0
27.5082 1045.0
27.5751 1041.0
27.6419 967.0
27.7088 978.0
27.7756 1034.0
27.8425 1132.0
27.9093 1238.0
27.9762 1289.0
28.043 1232.0
28.1099 1136.0
28.1767 1103.0
28.2435 1192.0
28.3104 1218.0
28.3772 1296.0
28.4441 1277.0
28.5109 1253.0
28.5778 1193.0
28.6446 1125.0
28.7115 1063.0
28.7783 981.0
28.8451 1113.0
28.912 1012.0
28.9788 1022.0
29.0457 1052.0
29.1125 1068.0
29.1794 1015.0
29.2462 1010.0
29.3131 996.0
29.3799 987.0
29.4468 1024.0
29.5136 1047.0
29.5804 956.0
29.6473 1033.0
29.7141 1076.0
29.781 1227.0
29.8478 1279.0
29.9147 1284.0
29.9815 1256.0
30.0484 1247.0
30.1152 1277.0
30.182 1413.0
30.2489 1414.0
30.3157 1516.0
30.3826 1469.0
30.4494 1437.0
30.5163 1552.0
30.5831 1615.0
30.65 1698.0
30.7168 1850.0
30.7837 1975.0
30.8505 2163.0
30.9173 2366.0
30.9842 2527.0
31.051 2632.0
31.1179 2356.0
31.1847 2346.0
31.2516 2436.0
31.3184 2709.0
31.3853 2737.0
31.4521 2510.0
31.519 2263.0
31.5858 1809.0
31.6526 1662.0
31.7195 1538.0
31.7863 1422.0
31.8532 1385.0
31.92 1285.0
31.9869 1388.0
32.0537 1323.0
32.1206 1235.0
32.1874 1256.0
32.2542 1169.0
32.3211 1180.0
32.3879 1192.0
32.4548 1153.0
32.5216 1134.0
32.5885 1151.0
32.6553 1117.0
32.7222 1204.0
32.789 1189.0
32.8559 1056.0
32.9227 1055.0
32.9895 1034.0
33.0564 1004.0
33.1232 953.0
33.1901 930.0
33.2569 958.0
33.3238 917.0
33.3906 891.0
33.4575 863.0
33.5243 808.0
33.5911 832.0
33.658 825.0
33.7248 830.0
33.7917 877.0
33.8585 871.0
33.9254 800.0
33.9922 812.0
34.0591 773.0
34.1259 781.0
34.1928 787.0
34.2596 694.0
34.3264 762.0
34.3933 724.0
34.4601 675.0
34.527 801.0
34.5938 751.0
34.6607 730.0
34.7275 832.0
34.7944 782.0
34.8612 804.0
34.928 761.0
34.9949 813.0
35.0617 736.0
35.1286 719.0
35.1954 727.0
35.2623 672.0
35.3291 659.0
35.396 674.0
35.4628 605.0
35.5297 618.0
35.5965 597.0
35.6633 615.0
35.7302 605.0
35.797 622.0
35.8639 606.0
35.9307 596.0
35.9976 572.0
36.0644 583.0
36.1313 613.0
36.1981 604.0
36.265 616.0
36.3318 644.0
36.3986 631.0
36.4655 584.0
36.5323 623.0
36.5992 574.0
36.666 555.0
36.7329 601.0
36.7997 565.0
36.8666 536.0
36.9334 520.0
37.0002 501.0
37.0671 495.0
37.1339 506.0
37.2008 503.0
37.2676 542.0
37.3345 522.0
37.4013 479.0
37.4682 508.0
37.535 474.0
37.6019 488.0
37.6687 467.0
37.7355 512.0
37.8024 485.0
37.8692 492.0
37.9361 475.0
38.0029 509.0
38.0698 505.0
38.1366 447.0
38.2035 494.0
38.2703 462.0
38.3371 475.0
38.404 463.0
38.4708 435.0
38.5377 469.0
38.6045 494.0
38.6714 470.0
38.7382 473.0
38.8051 487.0
38.8719 522.0
38.9388 507.0
39.0056 505.0
39.0724 483.0
39.1393 494.0
39.2061 481.0
39.273 473.0
39.3398 520.0
39.4067 564.0
39.4735 574.0
39.5404 517.0
39.6072 531.0
39.6741 542.0
39.7409 514.0
39.8077 498.0
39.8746 527.0
39.9414 506.0
40.0083 474.0
40.0751 516.0
40.142 516.0
40.2088 525.0
40.2757 521.0
40.3425 470.0
40.4093 501.0
40.4762 478.0
40.543 478.0
40.6099 514.0
40.6767 492.0
40.7436 489.0
40.8104 487.0
40.8773 521.0
40.9441 494.0
41.011 497.0
41.0778 504.0
41.1446 477.0
41.2115 507.0
41.2783 494.0
41.3452 503.0
41.412 494.0
41.4789 459.0
41.5457 486.0
41.6126 493.0
41.6794 491.0
41.7462 491.0
41.8131 436.0
41.8799 474.0
41.9468 478.0
42.0136 487.0
42.0805 478.0
42.1473 510.0
42.2142 500.0
42.281 486.0
42.3479 506.0
42.4147 513.0
42.4815 477.0
42.5484 516.0
42.6152 464.0
42.6821 467.0
42.7489 487.0
42.8158 529.0
42.8826 492.0
42.9495 486.0
43.0163 500.0
43.0831 485.0
43.15 527.0
43.2168 521.0
43.2837 540.0
43.3505 560.0
43.4174 570.0
43.4842 585.0
43.5511 506.0
43.6179 534.0
43.6848 535.0
43.7516 576.0
43.8184 553.0
43.8853 537.0
43.9521 533.0
44.019 539.0
44.0858 487.0
44.1527 495.0
44.2195 501.0
44.2864 492.0
44.3532 483.0
44.4201 491.0
44.4869 506.0
44.5537 476.0
44.6206 466.0
44.6874 531.0
44.7543 497.0
44.8211 466.0
44.888 524.0
44.9548 443.0
45.0217 505.0
45.0885 456.0
45.1553 482.0
45.2222 436.0
45.289 456.0
45.3559 502.0
45.4227 496.0
45.4896 471.0
45.5564 495.0
45.6233 439.0
45.6901 422.0
45.757 498.0
45.8238 466.0
45.8906 470.0
45.9575 438.0
46.0243 478.0
46.0912 460.0
46.158 460.0
46.2249 435.0
46.2917 476.0
46.3586 464.0
46.4254 444.0
46.4922 462.0
46.5591 491.0
46.6259 430.0
46.6928 427.0
46.7596 493.0
46.8265 508.0
46.8933 502.0
46.9602 474.0
47.027 438.0
47.0939 453.0
47.1607 497.0
47.2275 508.0
47.2944 517.0
47.3612 494.0
47.4281 455.0
47.4949 521.0
47.5618 464.0
47.6286 463.0
47.6955 459.0
47.7623 475.0
47.8291 534.0
47.896 444.0
47.9628 495.0
48.0297 504.0
48.0965 485.0
48.1634 507.0
48.2302 505.0
48.2971 474.0
48.3639 475.0
48.4308 504.0
48.4976 514.0
48.5644 434.0
48.6313 422.0
48.6981 443.0
48.765 510.0
48.8318 467.0
48.8987 472.0
48.9655 458.0
49.0324 514.0
49.0992 525.0
49.1661 536.0
49.2329 599.0
49.2997 618.0
49.3666 607.0
49.4334 677.0
49.5003 672.0
49.5671 673.0
49.634 696.0
49.7008 609.0
49.7677 574.0
49.8345 613.0
49.9013 553.0
49.9682 536.0
50.035 579.0
50.1019 550.0
50.1687 522.0
50.2356 555.0
50.3024 493.0
50.3693 540.0
50.4361 540.0
50.503 559.0
50.5698 584.0
50.6366 564.0
50.7035 521.0
50.7703 589.0
50.8372 549.0
50.904 544.0
50.9709 579.0
51.0377 539.0
51.1046 578.0
51.1714 552.0
51.2382 632.0
51.3051 650.0
51.3719 584.0
51.4388 576.0
51.5056 560.0
51.5725 534.0
51.6393 545.0
51.7062 528.0
51.773 563.0
51.8399 522.0
51.9067 547.0
51.9735 560.0
52.0404 497.0
52.1072 494.0
52.1741 503.0
52.2409 514.0
52.3078 485.0
52.3746 510.0
52.4415 483.0
52.5083 498.0
52.5751 507.0
52.642 453.0
52.7088 476.0
52.7757 486.0
52.8425 516.0
52.9094 460.0
52.9762 469.0
53.0431 457.0
53.1099 476.0
53.1768 480.0
53.2436 473.0
53.3104 510.0
53.3773 467.0
53.4441 494.0
53.511 496.0
53.5778 503.0
53.6447 495.0
53.7115 532.0
53.7784 491.0
53.8452 584.0
53.9121 534.0
53.9789 566.0
54.0457 500.0
54.1126 527.0
54.1794 521.0
54.2463 508.0
54.3131 467.0
54.38 459.0
54.4468 486.0
54.5137 502.0
54.5805 481.0
54.6473 483.0
54.7142 485.0
54.781 476.0
54.8479 513.0
54.9147 470.0
54.9816 495.0
55.0484 480.0
55.1153 507.0
55.1821 492.0
55.249 458.0
55.3158 422.0
55.3826 470.0
55.4495 496.0
55.5163 489.0
55.5832 475.0
55.65 470.0
55.7169 545.0
55.7837 505.0
55.8506 548.0
55.9174 474.0
55.9842 540.0
56.0511 517.0
56.1179 496.0
56.1848 501.0
56.2516 550.0
56.3185 471.0
56.3853 495.0
56.4522 494.0
56.519 504.0
56.5859 491.0
56.6527 490.0
56.7195 509.0
56.7864 505.0
56.8532 501.0
56.9201 511.0
56.9869 501.0
57.0538 516.0
57.1206 454.0
57.1875 470.0
57.2543 455.0
57.3212 442.0
57.388 436.0
57.4548 432.0
57.5217 417.0
57.5885 377.0
57.6554 432.0
57.7222 396.0
57.7891 396.0
57.8559 412.0
57.9228 427.0
57.9896 417.0
58.0564 428.0
58.1233 398.0
58.1901 376.0
58.257 445.0
58.3238 395.0
58.3907 399.0
58.4575 415.0
58.5244 402.0
58.5912 409.0
58.6581 446.0
58.7249 423.0
58.7917 409.0
58.8586 451.0
58.9254 416.0
58.9923 454.0
59.0591 435.0
59.126 448.0
59.1928 416.0
59.2597 399.0
59.3265 379.0
59.3933 420.0
59.4602 453.0
59.527 395.0
59.5939 445.0
59.6607 404.0
59.7276 381.0
59.7944 455.0
59.8613 413.0
59.9281 435.0
59.995 454.0
60.0618 435.0
60.1286 418.0
60.1955 451.0
60.2623 416.0
60.3292 472.0
60.396 424.0
60.4629 433.0
60.5297 426.0
60.5966 431.0
60.6634 454.0
60.7302 423.0
60.7971 441.0
60.8639 425.0
60.9308 431.0
60.9976 398.0
61.0645 420.0
61.1313 406.0
61.1982 395.0
61.265 415.0
61.3319 428.0
61.3987 444.0
61.4655 424.0
61.5324 447.0
61.5992 435.0
61.6661 444.0
61.7329 463.0
61.7998 430.0
61.8666 464.0
61.9335 470.0
62.0003 417.0
62.0672 388.0
62.134 474.0
62.2008 426.0
62.2677 447.0
62.3345 408.0
62.4014 429.0
62.4682 393.0
62.5351 407.0
62.6019 406.0
62.6688 400.0
62.7356 394.0
62.8024 414.0
62.8693 375.0
62.9361 411.0
63.003 442.0
63.0698 415.0
63.1367 446.0
63.2035 410.0
63.2704 376.0
63.3372 423.0
63.4041 400.0
63.4709 399.0
63.5377 403.0
63.6046 406.0
63.6714 391.0
63.7383 394.0
63.8051 392.0
63.872 440.0
63.9388 407.0
64.0057 411.0
64.0725 418.0
64.1393 412.0
64.2062 378.0
64.273 400.0
64.3399 365.0
64.4067 428.0
64.4736 384.0
64.5404 368.0
64.6073 409.0
64.6741 379.0
64.741 372.0
64.8078 434.0
64.8746 395.0
64.9415 413.0
65.0083 388.0
65.0752 403.0
65.142 397.0
65.2089 439.0
65.2757 430.0
65.3426 427.0
65.4094 381.0
65.4762 384.0
65.5431 412.0
65.6099 406.0
65.6768 400.0
65.7436 395.0
65.8105 410.0
65.8773 376.0
65.9442 371.0
66.011 397.0
66.0779 402.0
66.1447 403.0
66.2115 364.0
66.2784 364.0
66.3452 384.0
66.4121 375.0
66.4789 408.0
66.5458 403.0
66.6126 441.0
66.6795 409.0
66.7463 420.0
66.8132 413.0
66.88 454.0
66.9468 431.0
67.0137 397.0
67.0805 462.0
67.1474 397.0
67.2142 424.0
67.2811 444.0
67.3479 482.0
67.4148 454.0
67.4816 438.0
67.5484 435.0
67.6153 419.0
67.6821 420.0
67.749 417.0
67.8158 400.0
67.8827 391.0
67.9495 406.0
68.0164 438.0
68.0832 441.0
68.1501 413.0
68.2169 413.0
68.2837 363.0
68.3506 406.0
68.4174 407.0
68.4843 412.0
68.5511 400.0
68.618 402.0
68.6848 391.0
68.7517 393.0
68.8185 379.0
68.8853 401.0
68.9522 411.0
69.019 399.0
69.0859 388.0
69.1527 351.0
69.2196 380.0
69.2864 385.0
69.3533 385.0
69.4201 380.0
69.487 355.0
69.5538 404.0
69.6206 440.0
69.6875 400.0
69.7543 432.0
69.8212 385.0
69.888 413.0
69.9549 395.0
70.0217 426.0
70.0886 372.0
70.1554 429.0
70.2222 396.0
70.2891 381.0
70.3559 384.0
70.4228 414.0
70.4896 443.0
70.5565 398.0
70.6233 402.0
70.6902 409.0
70.757 430.0
70.8239 422.0
70.8907 397.0
70.9575 448.0
71.0244 383.0
71.0912 410.0
71.1581 417.0
71.2249 432.0
71.2918 423.0
71.3586 385.0
71.4255 412.0
71.4923 419.0
71.5592 414.0
71.626 401.0
71.6928 399.0
71.7597 364.0
71.8265 391.0
71.8934 376.0
71.9602 395.0
72.0271 370.0
72.0939 360.0
72.1608 344.0
72.2276 388.0
72.2944 398.0
72.3613 350.0
72.4281 365.0
72.495 420.0
72.5618 393.0
72.6287 394.0
72.6955 352.0
72.7624 399.0
72.8292 364.0
72.8961 361.0
72.9629 354.0
73.0297 387.0
73.0966 364.0
73.1634 373.0
73.2303 412.0
73.2971 383.0
73.364 385.0
73.4308 375.0
73.4977 375.0
73.5645 366.0
73.6313 368.0
73.6982 408.0
73.765 354.0
73.8319 335.0
73.8987 363.0
73.9656 348.0
74.0324 350.0
74.0993 376.0
74.1661 348.0
74.233 367.0
74.2998 356.0
74.3666 354.0
74.4335 388.0
74.5003 391.0
74.5672 365.0
74.634 324.0
74.7009 370.0
74.7677 337.0
74.8346 351.0
74.9014 346.0
74.9683 366.0
75.0351 381.0
75.1019 358.0
75.1688 367.0
75.2356 363.0
75.3025 328.0
75.3693 337.0
75.4362 361.0
75.503 362.0
75.5699 345.0
75.6367 356.0
75.7035 336.0
75.7704 342.0
75.8372 335.0
75.9041 317.0
75.9709 334.0
76.0378 328.0
76.1046 344.0
76.1715 333.0
76.2383 363.0
76.3052 373.0
76.372 336.0
76.4388 311.0
76.5057 355.0
76.5725 361.0
76.6394 352.0
76.7062 364.0
76.7731 321.0
76.8399 321.0
76.9068 328.0
76.9736 350.0
77.0404 340.0
77.1073 333.0
77.1741 357.0
77.241 349.0
77.3078 331.0
77.3747 311.0
77.4415 363.0
77.5084 292.0
77.5752 309.0
77.6421 308.0
77.7089 317.0
77.7757 310.0
77.8426 334.0
77.9094 340.0
77.9763 308.0
78.0431 339.0
78.11 341.0
78.1768 319.0
78.2437 341.0
78.3105 335.0
78.3773 334.0
78.4442 322.0
78.511 306.0
78.5779 320.0
78.6447 328.0
78.7116 325.0
78.7784 313.0
78.8453 349.0
78.9121 310.0
78.979 328.0
79.0458 322.0
79.1126 302.0
79.1795 298.0
79.2463 302.0
79.3132 301.0
79.38 313.0
79.4469 295.0
79.5137 306.0
79.5806 291.0
79.6474 301.0
79.7143 300.0
79.7811 289.0
79.8479 326.0
79.9148 277.0
79.9816 313.0
80.0485 273.0
80.1153 317.0
80.1822 307.0
80.249 305.0
80.3159 316.0
80.3827 263.0
80.4495 279.0
80.5164 306.0
80.5832 262.0
80.6501 292.0
80.7169 275.0
80.7838 282.0
80.8506 291.0
80.9175 294.0
80.9843 288.0
81.0512 285.0
81.118 307.0
81.1848 317.0
81.2517 303.0
81.3185 279.0
81.3854 326.0
81.4522 304.0
81.5191 310.0
81.5859 255.0
81.6528 277.0
81.7196 289.0
81.7864 280.0
81.8533 277.0
81.9201 283.0
81.987 266.0
82.0538 259.0
82.1207 284.0
82.1875 257.0
82.2544 289.0
82.3212 290.0
82.3881 254.0
82.4549 274.0
82.5217 270.0
82.5886 285.0
82.6554 246.0
82.7223 261.0
82.7891 268.0
82.856 257.0
82.9228 292.0
82.9897 251.0
83.0565 245.0
83.1233 248.0
83.1902 276.0
83.257 260.0
83.3239 269.0
83.3907 248.0
83.4576 266.0
83.5244 268.0
83.5913 291.0
83.6581 246.0
83.725 262.0
83.7918 272.0
83.8586 263.0
83.9255 257.0
83.9923 244.0
84.0592 254.0
84.126 269.0
84.1929 241.0
84.2597 222.0
84.3266 270.0
84.3934 253.0
84.4603 243.0
84.5271 247.0
84.5939 242.0
84.6608 226.0
84.7276 222.0
84.7945 238.0
84.8613 240.0
84.9282 230.0
84.995 268.0
85.0619 230.0
85.1287 242.0
85.1955 236.0
85.2624 225.0
85.3292 237.0
85.3961 242.0
85.4629 223.0
85.5298 268.0
85.5966 207.0
85.6635 228.0
85.7303 226.0
85.7972 251.0
85.864 247.0
85.9308 254.0
85.9977 220.0
86.0645 235.0
86.1314 253.0
86.1982 247.0
86.2651 222.0
86.3319 211.0
86.3988 217.0
86.4656 225.0
86.5324 209.0
86.5993 223.0
86.6661 205.0
86.733 233.0
86.7998 204.0
86.8667 198.0
86.9335 212.0
87.0004 224.0
87.0672 221.0
87.1341 203.0
87.2009 223.0
87.2677 233.0
87.3346 210.0
87.4014 233.0
87.4683 221.0
87.5351 215.0
87.602 206.0
87.6688 201.0
87.7357 215.0
87.8025 203.0
87.8693 216.0
87.9362 227.0
88.003 217.0
88.0699 225.0
88.1367 241.0
88.2036 207.0
88.2704 226.0
88.3373 210.0
88.4041 214.0
88.471 214.0
88.5378 205.0
88.6046 213.0
88.6715 214.0
88.7383 229.0
88.8052 185.0
88.872 216.0
88.9389 222.0
89.0057 193.0
89.0726 226.0
89.1394 213.0
89.2063 199.0
89.2731 214.0
89.3399 206.0
89.4068 177.0
89.4736 194.0
89.5405 214.0
89.6073 195.0
89.6742 186.0
89.741 212.0
89.8079 216.0
89.8747 227.0
89.9415 211.0