File: code/XRD_Analysis/Zeolites/data_files/SAPO-34/calc/20241029_SAPO-34-1_calc_Probe-1.xy
4.98146 957.0
5.0483 861.0
5.11515 891.0
5.18199 869.0
5.24884 835.0
5.31568 855.0
5.38253 822.0
5.44937 851.0
5.51622 828.0
5.58306 847.0
5.64991 834.0
5.71675 803.0
5.7836 766.0
5.85044 791.0
5.91729 814.0
5.98413 758.0
6.05098 735.0
6.11782 737.0
6.18467 727.0
6.25151 728.0
6.31836 732.0
6.3852 746.0
6.45205 730.0
6.51889 712.0
6.58574 704.0
6.65258 750.0
6.71943 686.0
6.78627 689.0
6.85312 665.0
6.91996 676.0
6.98681 703.0
7.05365 645.0
7.1205 631.0
7.18734 626.0
7.25419 649.0
7.32103 657.0
7.38788 669.0
7.45472 613.0
7.52157 573.0
7.58841 604.0
7.65526 583.0
7.7221 646.0
7.78895 696.0
7.85579 619.0
7.92264 619.0
7.98948 628.0
8.05633 615.0
8.12317 587.0
8.19002 616.0
8.25686 589.0
8.32371 586.0
8.39055 592.0
8.4574 616.0
8.52424 602.0
8.59109 569.0
8.65793 606.0
8.72478 560.0
8.79162 606.0
8.85847 587.0
8.92532 570.0
8.99216 605.0
9.05901 673.0
9.12585 757.0
9.1927 774.0
9.25954 924.0
9.32639 1203.0
9.39323 2354.0
9.46008 8037.0
9.52692 17014.0
9.59377 10138.0
9.66061 2428.0
9.72746 1112.0
9.7943 979.0
9.86115 870.0
9.92799 807.0
9.99484 802.0
10.0617 742.0
10.1285 748.0
10.1954 731.0
10.2622 707.0
10.3291 662.0
10.3959 717.0
10.4628 674.0
10.5296 703.0
10.5964 676.0
10.6633 660.0
10.7301 631.0
10.797 673.0
10.8638 613.0
10.9307 656.0
10.9975 653.0
11.0644 650.0
11.1312 587.0
11.198 602.0
11.2649 583.0
11.3317 573.0
11.3986 600.0
11.4654 629.0
11.5323 622.0
11.5991 643.0
11.666 645.0
11.7328 591.0
11.7997 598.0
11.8665 642.0
11.9333 632.0
12.0002 540.0
12.067 609.0
12.1339 588.0
12.2007 622.0
12.2676 622.0
12.3344 627.0
12.4013 623.0
12.4681 601.0
12.5349 613.0
12.6018 617.0
12.6686 633.0
12.7355 651.0
12.8023 818.0
12.8692 1526.0
12.936 3080.0
13.0029 2350.0
13.0697 992.0
13.1366 756.0
13.2034 703.0
13.2702 720.0
13.3371 751.0
13.4039 851.0
13.4708 895.0
13.5376 795.0
13.6045 637.0
13.6713 576.0
13.7382 474.0
13.805 498.0
13.8719 511.0
13.9387 607.0
14.0055 715.0
14.0724 570.0
14.1392 545.0
14.2061 507.0
14.2729 500.0
14.3398 503.0
14.4066 501.0
14.4735 478.0
14.5403 510.0
14.6071 490.0
14.674 531.0
14.7408 466.0
14.8077 514.0
14.8745 486.0
14.9414 501.0
15.0082 506.0
15.0751 507.0
15.1419 509.0
15.2088 549.0
15.2756 533.0
15.3424 542.0
15.4093 542.0
15.4761 524.0
15.543 599.0
15.6098 581.0
15.6767 545.0
15.7435 622.0
15.8104 595.0
15.8772 550.0
15.944 653.0
16.0109 929.0
16.0777 2104.0
16.1446 2681.0
16.2114 1596.0
16.2783 798.0
16.3451 667.0
16.412 675.0
16.4788 696.0
16.5457 694.0
16.6125 774.0
16.6793 847.0
16.7462 815.0
16.813 1043.0
16.8799 1067.0
16.9467 1103.0
17.0136 1097.0
17.0804 1126.0
17.1473 1045.0
17.2141 974.0
17.2809 995.0
17.3478 907.0
17.4146 880.0
17.4815 816.0
17.5483 849.0
17.6152 800.0
17.682 881.0
17.7489 895.0
17.8157 971.0
17.8826 947.0
17.9494 822.0
18.0162 758.0
18.0831 699.0
18.1499 716.0
18.2168 766.0
18.2836 703.0
18.3505 677.0
18.4173 717.0
18.4842 737.0
18.551 728.0
18.6179 724.0
18.6847 690.0
18.7515 728.0
18.8184 703.0
18.8852 724.0
18.9521 739.0
19.0189 850.0
19.0858 1446.0
19.1526 1503.0
19.2195 1222.0
19.2863 926.0
19.3531 735.0
19.42 781.0
19.4868 740.0
19.5537 722.0
19.6205 782.0
19.6874 774.0
19.7542 790.0
19.8211 808.0
19.8879 822.0
19.9548 850.0
20.0216 844.0
20.0884 876.0
20.1553 841.0
20.2221 904.0
20.289 976.0
20.3558 914.0
20.4227 850.0
20.4895 1001.0
20.5564 1125.0
20.6232 1804.0
20.69 3670.0
20.7569 4155.0
20.8237 2617.0
20.8906 1606.0
20.9574 1180.0
21.0243 1222.0
21.0911 1199.0
21.158 1218.0
21.2248 1274.0
21.2917 1361.0
21.3585 1364.0
21.4253 1446.0
21.4922 1243.0
21.559 1146.0
21.6259 962.0
21.6927 809.0
21.7596 786.0
21.8264 743.0
21.8933 710.0
21.9601 774.0
22.0269 781.0
22.0938 794.0
22.1606 813.0
22.2275 757.0
22.2943 752.0
22.3612 781.0
22.428 831.0
22.4949 790.0
22.5617 805.0
22.6286 797.0
22.6954 903.0
22.7622 872.0
22.8291 885.0
22.8959 856.0
22.9628 901.0
23.0296 879.0
23.0965 963.0
23.1633 1282.0
23.2302 1572.0
23.297 1339.0
23.3639 1106.0
23.4307 941.0
23.4975 974.0
23.5644 984.0
23.6312 1031.0
23.6981 992.0
23.7649 1060.0
23.8318 1075.0
23.8986 1146.0
23.9655 1168.0
24.0323 1138.0
24.0991 1211.0
24.166 1183.0
24.2328 1165.0
24.2997 1180.0
24.3665 1221.0
24.4334 1208.0
24.5002 1120.0
24.5671 1228.0
24.6339 1104.0
24.7008 1195.0
24.7676 1175.0
24.8344 1157.0
24.9013 1235.0
24.9681 1377.0
25.035 1380.0
25.1018 1228.0
25.1687 1273.0
25.2355 1138.0
25.3024 1170.0
25.3692 1143.0
25.436 1072.0
25.5029 1056.0
25.5697 1125.0
25.6366 1136.0
25.7034 1110.0
25.7703 1184.0
25.8371 1208.0
25.904 1204.0
25.9708 1434.0
26.0377 1984.0
26.1045 2269.0
26.1713 1828.0
26.2382 1578.0
26.305 1274.0
26.3719 1216.0
26.4387 1183.0
26.5056 1121.0
26.5724 1114.0
26.6393 1110.0
26.7061 1132.0
26.773 1129.0
26.8398 1115.0
26.9066 1038.0
26.9735 1074.0
27.0403 1037.0
27.1072 986.0
27.174 1022.0
27.2409 924.0
27.3077 914.0
27.3746 924.0
27.4414 955.0
27.5082 932.0
27.5751 935.0
27.6419 992.0
27.7088 995.0
27.7756 1068.0
27.8425 1184.0
27.9093 1148.0
27.9762 1049.0
28.043 1007.0
28.1099 1039.0
28.1767 1075.0
28.2435 1237.0
28.3104 1175.0
28.3772 1143.0
28.4441 1036.0
28.5109 1013.0
28.5778 987.0
28.6446 986.0
28.7115 944.0
28.7783 1000.0
28.8451 967.0
28.912 995.0
28.9788 953.0
29.0457 949.0
29.1125 963.0
29.1794 951.0
29.2462 978.0
29.3131 971.0
29.3799 972.0
29.4468 959.0
29.5136 971.0
29.5804 1062.0
29.6473 1147.0
29.7141 1253.0
29.781 1255.0
29.8478 1206.0
29.9147 1183.0
29.9815 1177.0
30.0484 1250.0
30.1152 1284.0
30.182 1289.0
30.2489 1361.0
30.3157 1434.0
30.3826 1519.0
30.4494 1720.0
30.5163 1597.0
30.5831 1837.0
30.65 1927.0
30.7168 1919.0
30.7837 2017.0
30.8505 2228.0
30.9173 2267.0
30.9842 2141.0
31.051 2243.0
31.1179 2460.0
31.1847 2647.0
31.2516 2676.0
31.3184 2422.0
31.3853 2031.0
31.4521 1776.0
31.519 1503.0
31.5858 1410.0
31.6526 1313.0
31.7195 1226.0
31.7863 1259.0
31.8532 1316.0
31.92 1200.0
31.9869 1297.0
32.0537 1064.0
32.1206 1121.0
32.1874 1091.0
32.2542 1047.0
32.3211 1076.0
32.3879 1017.0
32.4548 1009.0
32.5216 1007.0
32.5885 1019.0
32.6553 1042.0
32.7222 969.0
32.789 919.0
32.8559 834.0
32.9227 885.0
32.9895 821.0
33.0564 794.0
33.1232 816.0
33.1901 812.0
33.2569 801.0
33.3238 766.0
33.3906 773.0
33.4575 752.0
33.5243 779.0
33.5911 746.0
33.658 783.0
33.7248 818.0
33.7917 768.0
33.8585 706.0
33.9254 704.0
33.9922 726.0
34.0591 706.0
34.1259 707.0
34.1928 676.0
34.2596 617.0
34.3264 699.0
34.3933 658.0
34.4601 663.0
34.527 692.0
34.5938 662.0
34.6607 636.0
34.7275 711.0
34.7944 708.0
34.8612 717.0
34.928 705.0
34.9949 630.0
35.0617 634.0
35.1286 663.0
35.1954 602.0
35.2623 609.0
35.3291 612.0
35.396 590.0
35.4628 566.0
35.5297 581.0
35.5965 565.0
35.6633 548.0
35.7302 567.0
35.797 544.0
35.8639 595.0
35.9307 606.0
35.9976 584.0
36.0644 603.0
36.1313 598.0
36.1981 565.0
36.265 602.0
36.3318 578.0
36.3986 539.0
36.4655 540.0
36.5323 504.0
36.5992 519.0
36.666 471.0
36.7329 456.0
36.7997 465.0
36.8666 491.0
36.9334 481.0
37.0002 462.0
37.0671 476.0
37.1339 490.0
37.2008 472.0
37.2676 444.0
37.3345 435.0
37.4013 441.0
37.4682 430.0
37.535 466.0
37.6019 439.0
37.6687 440.0
37.7355 433.0
37.8024 417.0
37.8692 450.0
37.9361 419.0
38.0029 463.0
38.0698 432.0
38.1366 433.0
38.2035 462.0
38.2703 477.0
38.3371 463.0
38.404 440.0
38.4708 440.0
38.5377 445.0
38.6045 408.0
38.6714 451.0
38.7382 397.0
38.8051 454.0
38.8719 430.0
38.9388 432.0
39.0056 464.0
39.0724 478.0
39.1393 439.0
39.2061 480.0
39.273 466.0
39.3398 489.0
39.4067 489.0
39.4735 451.0
39.5404 465.0
39.6072 456.0
39.6741 519.0
39.7409 471.0
39.8077 453.0
39.8746 485.0
39.9414 483.0
40.0083 488.0
40.0751 486.0
40.142 504.0
40.2088 459.0
40.2757 472.0
40.3425 460.0
40.4093 439.0
40.4762 457.0
40.543 461.0
40.6099 454.0
40.6767 445.0
40.7436 438.0
40.8104 428.0
40.8773 448.0
40.9441 450.0
41.011 447.0
41.0778 427.0
41.1446 442.0
41.2115 432.0
41.2783 488.0
41.3452 438.0
41.412 448.0
41.4789 463.0
41.5457 433.0
41.6126 433.0
41.6794 463.0
41.7462 455.0
41.8131 407.0
41.8799 447.0
41.9468 431.0
42.0136 448.0
42.0805 470.0
42.1473 463.0
42.2142 431.0
42.281 457.0
42.3479 498.0
42.4147 436.0
42.4815 412.0
42.5484 450.0
42.6152 419.0
42.6821 394.0
42.7489 472.0
42.8158 429.0
42.8826 465.0
42.9495 471.0
43.0163 456.0
43.0831 441.0
43.15 449.0
43.2168 473.0
43.2837 474.0
43.3505 489.0
43.4174 453.0
43.4842 473.0
43.5511 511.0
43.6179 440.0
43.6848 476.0
43.7516 483.0
43.8184 451.0
43.8853 458.0
43.9521 453.0
44.019 451.0
44.0858 426.0
44.1527 456.0
44.2195 428.0
44.2864 440.0
44.3532 408.0
44.4201 430.0
44.4869 447.0
44.5537 430.0
44.6206 481.0
44.6874 451.0
44.7543 404.0
44.8211 449.0
44.888 410.0
44.9548 429.0
45.0217 400.0
45.0885 443.0
45.1553 410.0
45.2222 449.0
45.289 401.0
45.3559 440.0
45.4227 436.0
45.4896 433.0
45.5564 409.0
45.6233 413.0
45.6901 395.0
45.757 416.0
45.8238 406.0
45.8906 399.0
45.9575 418.0
46.0243 413.0
46.0912 409.0
46.158 379.0
46.2249 428.0
46.2917 377.0
46.3586 386.0
46.4254 401.0
46.4922 408.0
46.5591 395.0
46.6259 412.0
46.6928 400.0
46.7596 400.0
46.8265 442.0
46.8933 415.0
46.9602 407.0
47.027 416.0
47.0939 439.0
47.1607 415.0
47.2275 414.0
47.2944 377.0
47.3612 426.0
47.4281 441.0
47.4949 412.0
47.5618 377.0
47.6286 443.0
47.6955 409.0
47.7623 438.0
47.8291 419.0
47.896 403.0
47.9628 454.0
48.0297 365.0
48.0965 463.0
48.1634 424.0
48.2302 417.0
48.2971 440.0
48.3639 464.0
48.4308 387.0
48.4976 439.0
48.5644 413.0
48.6313 417.0
48.6981 446.0
48.765 441.0
48.8318 450.0
48.8987 420.0
48.9655 470.0
49.0324 522.0
49.0992 584.0
49.1661 610.0
49.2329 569.0
49.2997 643.0
49.3666 622.0
49.4334 636.0
49.5003 553.0
49.5671 500.0
49.634 443.0
49.7008 512.0
49.7677 450.0
49.8345 466.0
49.9013 505.0
49.9682 447.0
50.035 434.0
50.1019 479.0
50.1687 470.0
50.2356 475.0
50.3024 489.0
50.3693 438.0
50.4361 485.0
50.503 471.0
50.5698 473.0
50.6366 450.0
50.7035 461.0
50.7703 438.0
50.8372 438.0
50.904 505.0
50.9709 481.0
51.0377 470.0
51.1046 512.0
51.1714 542.0
51.2382 542.0
51.3051 500.0
51.3719 464.0
51.4388 469.0
51.5056 433.0
51.5725 465.0
51.6393 482.0
51.7062 467.0
51.773 429.0
51.8399 432.0
51.9067 436.0
51.9735 425.0
52.0404 434.0
52.1072 371.0
52.1741 426.0
52.2409 413.0
52.3078 401.0
52.3746 382.0
52.4415 399.0
52.5083 442.0
52.5751 414.0
52.642 429.0
52.7088 410.0
52.7757 408.0
52.8425 413.0
52.9094 388.0
52.9762 367.0
53.0431 417.0
53.1099 399.0
53.1768 451.0
53.2436 395.0
53.3104 406.0
53.3773 412.0
53.4441 423.0
53.511 439.0
53.5778 420.0
53.6447 459.0
53.7115 471.0
53.7784 450.0
53.8452 439.0
53.9121 428.0
53.9789 412.0
54.0457 403.0
54.1126 412.0
54.1794 366.0
54.2463 388.0
54.3131 401.0
54.38 352.0
54.4468 444.0
54.5137 428.0
54.5805 401.0
54.6473 396.0
54.7142 431.0
54.781 430.0
54.8479 396.0
54.9147 432.0
54.9816 371.0
55.0484 439.0
55.1153 395.0
55.1821 402.0
55.249 420.0
55.3158 399.0
55.3826 429.0
55.4495 393.0
55.5163 393.0
55.5832 411.0
55.65 441.0
55.7169 379.0
55.7837 442.0
55.8506 448.0
55.9174 462.0
55.9842 409.0
56.0511 404.0
56.1179 383.0
56.1848 407.0
56.2516 433.0
56.3185 404.0
56.3853 382.0
56.4522 388.0
56.519 381.0
56.5859 460.0
56.6527 403.0
56.7195 456.0
56.7864 399.0
56.8532 426.0
56.9201 352.0
56.9869 358.0
57.0538 397.0
57.1206 369.0
57.1875 391.0
57.2543 392.0
57.3212 389.0
57.388 367.0
57.4548 369.0
57.5217 371.0
57.5885 367.0
57.6554 408.0
57.7222 340.0
57.7891 385.0
57.8559 365.0
57.9228 355.0
57.9896 381.0
58.0564 334.0
58.1233 380.0
58.1901 373.0
58.257 357.0
58.3238 340.0
58.3907 369.0
58.4575 371.0
58.5244 350.0
58.5912 385.0
58.6581 346.0
58.7249 407.0
58.7917 399.0
58.8586 377.0
58.9254 379.0
58.9923 369.0
59.0591 329.0
59.126 335.0
59.1928 371.0
59.2597 334.0
59.3265 357.0
59.3933 389.0
59.4602 342.0
59.527 363.0
59.5939 376.0
59.6607 362.0
59.7276 367.0
59.7944 378.0
59.8613 427.0
59.9281 409.0
59.995 394.0
60.0618 404.0
60.1286 362.0
60.1955 387.0
60.2623 356.0
60.3292 355.0
60.396 353.0
60.4629 366.0
60.5297 342.0
60.5966 336.0
60.6634 345.0
60.7302 388.0
60.7971 372.0
60.8639 352.0
60.9308 363.0
60.9976 346.0
61.0645 345.0
61.1313 400.0
61.1982 353.0
61.265 367.0
61.3319 331.0
61.3987 368.0
61.4655 370.0
61.5324 355.0
61.5992 380.0
61.6661 377.0
61.7329 367.0
61.7998 401.0
61.8666 365.0
61.9335 379.0
62.0003 350.0
62.0672 408.0
62.134 349.0
62.2008 329.0
62.2677 368.0
62.3345 368.0
62.4014 353.0
62.4682 309.0
62.5351 352.0
62.6019 342.0
62.6688 367.0
62.7356 360.0
62.8024 322.0
62.8693 340.0
62.9361 332.0
63.003 362.0
63.0698 349.0
63.1367 354.0
63.2035 363.0
63.2704 337.0
63.3372 330.0
63.4041 324.0
63.4709 366.0
63.5377 334.0
63.6046 371.0
63.6714 380.0
63.7383 353.0
63.8051 334.0
63.872 361.0
63.9388 345.0
64.0057 360.0
64.0725 367.0
64.1393 369.0
64.2062 318.0
64.273 351.0
64.3399 332.0
64.4067 338.0
64.4736 299.0
64.5404 339.0
64.6073 313.0
64.6741 337.0
64.741 348.0
64.8078 309.0
64.8746 315.0
64.9415 310.0
65.0083 316.0
65.0752 341.0
65.142 338.0
65.2089 333.0
65.2757 322.0
65.3426 348.0
65.4094 317.0
65.4762 346.0
65.5431 309.0
65.6099 303.0
65.6768 325.0
65.7436 300.0
65.8105 338.0
65.8773 356.0
65.9442 319.0
66.011 334.0
66.0779 310.0
66.1447 347.0
66.2115 334.0
66.2784 340.0
66.3452 317.0
66.4121 338.0
66.4789 372.0
66.5458 325.0
66.6126 354.0
66.6795 375.0
66.7463 364.0
66.8132 414.0
66.88 337.0
66.9468 347.0
67.0137 376.0
67.0805 382.0
67.1474 354.0
67.2142 381.0
67.2811 357.0
67.3479 380.0
67.4148 395.0
67.4816 347.0
67.5484 322.0
67.6153 338.0
67.6821 320.0
67.749 337.0
67.8158 339.0
67.8827 341.0
67.9495 336.0
68.0164 307.0
68.0832 342.0
68.1501 306.0
68.2169 315.0
68.2837 331.0
68.3506 320.0
68.4174 314.0
68.4843 308.0
68.5511 346.0
68.618 341.0
68.6848 329.0
68.7517 311.0
68.8185 340.0
68.8853 341.0
68.9522 336.0
69.019 328.0
69.0859 318.0
69.1527 291.0
69.2196 325.0
69.2864 323.0
69.3533 340.0
69.4201 290.0
69.487 334.0
69.5538 321.0
69.6206 277.0
69.6875 313.0
69.7543 319.0
69.8212 316.0
69.888 347.0
69.9549 297.0
70.0217 342.0
70.0886 322.0
70.1554 305.0
70.2222 300.0
70.2891 351.0
70.3559 322.0
70.4228 363.0
70.4896 322.0
70.5565 355.0
70.6233 351.0
70.6902 339.0
70.757 351.0
70.8239 323.0
70.8907 361.0
70.9575 310.0
71.0244 342.0
71.0912 329.0
71.1581 322.0
71.2249 316.0
71.2918 328.0
71.3586 336.0
71.4255 304.0
71.4923 323.0
71.5592 322.0
71.626 360.0
71.6928 293.0
71.7597 295.0
71.8265 320.0
71.8934 303.0
71.9602 310.0
72.0271 314.0
72.0939 340.0
72.1608 303.0
72.2276 308.0
72.2944 315.0
72.3613 326.0
72.4281 321.0
72.495 295.0
72.5618 277.0
72.6287 314.0
72.6955 292.0
72.7624 283.0
72.8292 309.0
72.8961 283.0
72.9629 284.0
73.0297 308.0
73.0966 325.0
73.1634 297.0
73.2303 304.0
73.2971 340.0
73.364 307.0
73.4308 268.0
73.4977 306.0
73.5645 315.0
73.6313 301.0
73.6982 293.0
73.765 331.0
73.8319 262.0
73.8987 276.0
73.9656 320.0
74.0324 272.0
74.0993 303.0
74.1661 308.0
74.233 277.0
74.2998 293.0
74.3666 284.0
74.4335 299.0
74.5003 283.0
74.5672 293.0
74.634 315.0
74.7009 258.0
74.7677 311.0
74.8346 278.0
74.9014 309.0
74.9683 275.0
75.0351 271.0
75.1019 308.0
75.1688 313.0
75.2356 301.0
75.3025 316.0
75.3693 286.0
75.4362 292.0
75.503 284.0
75.5699 287.0
75.6367 313.0
75.7035 270.0
75.7704 287.0
75.8372 304.0
75.9041 248.0
75.9709 277.0
76.0378 284.0
76.1046 305.0
76.1715 287.0
76.2383 288.0
76.3052 321.0
76.372 291.0
76.4388 274.0
76.5057 280.0
76.5725 277.0
76.6394 277.0
76.7062 245.0
76.7731 294.0
76.8399 283.0
76.9068 238.0
76.9736 289.0
77.0404 267.0
77.1073 250.0
77.1741 297.0
77.241 235.0
77.3078 239.0
77.3747 238.0
77.4415 240.0
77.5084 223.0
77.5752 272.0
77.6421 280.0
77.7089 254.0
77.7757 246.0
77.8426 270.0
77.9094 282.0
77.9763 275.0
78.0431 283.0
78.11 267.0
78.1768 288.0
78.2437 268.0
78.3105 251.0
78.3773 269.0
78.4442 256.0
78.511 261.0
78.5779 252.0
78.6447 252.0
78.7116 255.0
78.7784 287.0
78.8453 241.0
78.9121 275.0
78.979 266.0
79.0458 272.0
79.1126 255.0
79.1795 247.0
79.2463 285.0
79.3132 239.0
79.38 246.0
79.4469 278.0
79.5137 238.0
79.5806 230.0
79.6474 211.0
79.7143 271.0
79.7811 259.0
79.8479 242.0
79.9148 238.0
79.9816 253.0
80.0485 247.0
80.1153 254.0
80.1822 245.0
80.249 222.0
80.3159 241.0
80.3827 244.0
80.4495 225.0
80.5164 246.0
80.5832 237.0
80.6501 264.0
80.7169 263.0
80.7838 231.0
80.8506 236.0
80.9175 205.0
80.9843 251.0
81.0512 203.0
81.118 215.0
81.1848 252.0
81.2517 222.0
81.3185 245.0
81.3854 225.0
81.4522 196.0
81.5191 215.0
81.5859 196.0
81.6528 223.0
81.7196 212.0
81.7864 211.0
81.8533 208.0
81.9201 225.0
81.987 208.0
82.0538 242.0
82.1207 210.0
82.1875 212.0
82.2544 205.0
82.3212 207.0
82.3881 211.0
82.4549 220.0
82.5217 208.0
82.5886 212.0
82.6554 223.0
82.7223 209.0
82.7891 223.0
82.856 210.0
82.9228 204.0
82.9897 205.0
83.0565 189.0
83.1233 206.0
83.1902 181.0
83.257 191.0
83.3239 188.0
83.3907 200.0
83.4576 198.0
83.5244 210.0
83.5913 210.0
83.6581 191.0
83.725 230.0
83.7918 201.0
83.8586 200.0
83.9255 182.0
83.9923 170.0
84.0592 174.0
84.126 201.0
84.1929 200.0
84.2597 209.0
84.3266 219.0
84.3934 199.0
84.4603 197.0
84.5271 213.0
84.5939 169.0
84.6608 192.0
84.7276 204.0
84.7945 207.0
84.8613 215.0
84.9282 173.0
84.995 186.0
85.0619 184.0
85.1287 212.0
85.1955 207.0
85.2624 191.0
85.3292 180.0
85.3961 220.0
85.4629 175.0
85.5298 183.0
85.5966 205.0
85.6635 192.0
85.7303 208.0
85.7972 172.0
85.864 182.0
85.9308 176.0
85.9977 186.0
86.0645 182.0
86.1314 185.0
86.1982 185.0
86.2651 194.0
86.3319 191.0
86.3988 195.0
86.4656 176.0
86.5324 183.0
86.5993 176.0
86.6661 160.0
86.733 178.0
86.7998 169.0
86.8667 174.0
86.9335 206.0
87.0004 192.0
87.0672 157.0
87.1341 177.0
87.2009 188.0
87.2677 182.0
87.3346 155.0
87.4014 166.0
87.4683 180.0
87.5351 173.0
87.602 162.0
87.6688 176.0
87.7357 176.0
87.8025 179.0
87.8693 175.0
87.9362 174.0
88.003 168.0
88.0699 168.0
88.1367 177.0
88.2036 149.0
88.2704 160.0
88.3373 179.0
88.4041 163.0
88.471 166.0
88.5378 180.0
88.6046 158.0
88.6715 150.0
88.7383 189.0
88.8052 197.0
88.872 174.0
88.9389 167.0
89.0057 163.0
89.0726 153.0
89.1394 151.0
89.2063 181.0
89.2731 166.0
89.3399 174.0
89.4068 175.0
89.4736 161.0
89.5405 170.0
89.6073 167.0
89.6742 148.0
89.741 168.0
89.8079 165.0
89.8747 174.0
89.9415 174.0