File: code/XRD_Analysis/Zeolites/data_files/SAPO-34/calc/20241029_SAPO-34-1_calc_Probe-2.xy
4.98146 1033.0
5.0483 1022.0
5.11515 964.0
5.18199 970.0
5.24884 961.0
5.31568 866.0
5.38253 862.0
5.44937 848.0
5.51622 931.0
5.58306 840.0
5.64991 835.0
5.71675 833.0
5.7836 861.0
5.85044 782.0
5.91729 834.0
5.98413 812.0
6.05098 850.0
6.11782 789.0
6.18467 775.0
6.25151 781.0
6.31836 736.0
6.3852 766.0
6.45205 715.0
6.51889 800.0
6.58574 745.0
6.65258 706.0
6.71943 754.0
6.78627 697.0
6.85312 730.0
6.91996 763.0
6.98681 740.0
7.05365 713.0
7.1205 722.0
7.18734 706.0
7.25419 704.0
7.32103 696.0
7.38788 663.0
7.45472 705.0
7.52157 667.0
7.58841 611.0
7.65526 686.0
7.7221 666.0
7.78895 675.0
7.85579 649.0
7.92264 656.0
7.98948 658.0
8.05633 658.0
8.12317 635.0
8.19002 682.0
8.25686 628.0
8.32371 639.0
8.39055 605.0
8.4574 591.0
8.52424 632.0
8.59109 647.0
8.65793 669.0
8.72478 627.0
8.79162 645.0
8.85847 604.0
8.92532 651.0
8.99216 629.0
9.05901 672.0
9.12585 801.0
9.1927 849.0
9.25954 877.0
9.32639 1250.0
9.39323 2337.0
9.46008 8057.0
9.52692 25143.0
9.59377 18832.0
9.66061 3245.0
9.72746 1394.0
9.7943 1125.0
9.86115 915.0
9.92799 856.0
9.99484 829.0
10.0617 791.0
10.1285 785.0
10.1954 721.0
10.2622 695.0
10.3291 711.0
10.3959 711.0
10.4628 653.0
10.5296 683.0
10.5964 666.0
10.6633 581.0
10.7301 667.0
10.797 651.0
10.8638 721.0
10.9307 634.0
10.9975 634.0
11.0644 615.0
11.1312 602.0
11.198 580.0
11.2649 666.0
11.3317 639.0
11.3986 620.0
11.4654 596.0
11.5323 612.0
11.5991 615.0
11.666 676.0
11.7328 614.0
11.7997 649.0
11.8665 668.0
11.9333 639.0
12.0002 657.0
12.067 650.0
12.1339 644.0
12.2007 645.0
12.2676 654.0
12.3344 664.0
12.4013 638.0
12.4681 659.0
12.5349 661.0
12.6018 647.0
12.6686 709.0
12.7355 714.0
12.8023 754.0
12.8692 1252.0
12.936 3038.0
13.0029 3543.0
13.0697 1499.0
13.1366 863.0
13.2034 835.0
13.2702 741.0
13.3371 877.0
13.4039 957.0
13.4708 914.0
13.5376 815.0
13.6045 736.0
13.6713 544.0
13.7382 574.0
13.805 477.0
13.8719 507.0
13.9387 632.0
14.0055 750.0
14.0724 674.0
14.1392 565.0
14.2061 589.0
14.2729 551.0
14.3398 601.0
14.4066 566.0
14.4735 544.0
14.5403 585.0
14.6071 566.0
14.674 534.0
14.7408 536.0
14.8077 575.0
14.8745 615.0
14.9414 544.0
15.0082 551.0
15.0751 564.0
15.1419 605.0
15.2088 574.0
15.2756 576.0
15.3424 584.0
15.4093 603.0
15.4761 556.0
15.543 606.0
15.6098 651.0
15.6767 645.0
15.7435 582.0
15.8104 600.0
15.8772 662.0
15.944 726.0
16.0109 914.0
16.0777 1854.0
16.1446 3077.0
16.2114 1883.0
16.2783 881.0
16.3451 766.0
16.412 767.0
16.4788 743.0
16.5457 787.0
16.6125 852.0
16.6793 888.0
16.7462 933.0
16.813 994.0
16.8799 1075.0
16.9467 1115.0
17.0136 1094.0
17.0804 1079.0
17.1473 1097.0
17.2141 1020.0
17.2809 947.0
17.3478 965.0
17.4146 966.0
17.4815 935.0
17.5483 946.0
17.6152 903.0
17.682 981.0
17.7489 1153.0
17.8157 1315.0
17.8826 1059.0
17.9494 938.0
18.0162 838.0
18.0831 802.0
18.1499 771.0
18.2168 793.0
18.2836 809.0
18.3505 822.0
18.4173 776.0
18.4842 775.0
18.551 799.0
18.6179 751.0
18.6847 711.0
18.7515 784.0
18.8184 758.0
18.8852 776.0
18.9521 815.0
19.0189 942.0
19.0858 1554.0
19.1526 1970.0
19.2195 1603.0
19.2863 1073.0
19.3531 821.0
19.42 786.0
19.4868 834.0
19.5537 819.0
19.6205 841.0
19.6874 817.0
19.7542 853.0
19.8211 901.0
19.8879 895.0
19.9548 834.0
20.0216 878.0
20.0884 993.0
20.1553 1027.0
20.2221 991.0
20.289 998.0
20.3558 1045.0
20.4227 1060.0
20.4895 1103.0
20.5564 1204.0
20.6232 1688.0
20.69 3381.0
20.7569 5226.0
20.8237 3833.0
20.8906 2052.0
20.9574 1490.0
21.0243 1393.0
21.0911 1391.0
21.158 1406.0
21.2248 1406.0
21.2917 1408.0
21.3585 1456.0
21.4253 1478.0
21.4922 1402.0
21.559 1173.0
21.6259 1033.0
21.6927 964.0
21.7596 880.0
21.8264 826.0
21.8933 824.0
21.9601 845.0
22.0269 880.0
22.0938 955.0
22.1606 954.0
22.2275 897.0
22.2943 849.0
22.3612 888.0
22.428 850.0
22.4949 893.0
22.5617 967.0
22.6286 946.0
22.6954 908.0
22.7622 889.0
22.8291 979.0
22.8959 959.0
22.9628 1032.0
23.0296 1056.0
23.0965 1103.0
23.1633 1456.0
23.2302 1773.0
23.297 1575.0
23.3639 1299.0
23.4307 1103.0
23.4975 1080.0
23.5644 1095.0
23.6312 1089.0
23.6981 1136.0
23.7649 1115.0
23.8318 1126.0
23.8986 1239.0
23.9655 1221.0
24.0323 1201.0
24.0991 1242.0
24.166 1250.0
24.2328 1246.0
24.2997 1235.0
24.3665 1275.0
24.4334 1296.0
24.5002 1322.0
24.5671 1263.0
24.6339 1285.0
24.7008 1235.0
24.7676 1330.0
24.8344 1399.0
24.9013 1560.0
24.9681 1684.0
25.035 1726.0
25.1018 1643.0
25.1687 1403.0
25.2355 1321.0
25.3024 1301.0
25.3692 1307.0
25.436 1262.0
25.5029 1363.0
25.5697 1250.0
25.6366 1304.0
25.7034 1328.0
25.7703 1359.0
25.8371 1272.0
25.904 1329.0
25.9708 1454.0
26.0377 1957.0
26.1045 2553.0
26.1713 2427.0
26.2382 1852.0
26.305 1407.0
26.3719 1300.0
26.4387 1230.0
26.5056 1219.0
26.5724 1207.0
26.6393 1261.0
26.7061 1152.0
26.773 1154.0
26.8398 1182.0
26.9066 1165.0
26.9735 1131.0
27.0403 1144.0
27.1072 1101.0
27.174 1145.0
27.2409 1107.0
27.3077 1113.0
27.3746 1131.0
27.4414 1044.0
27.5082 1146.0
27.5751 1090.0
27.6419 1007.0
27.7088 1123.0
27.7756 1158.0
27.8425 1321.0
27.9093 1308.0
27.9762 1309.0
28.043 1166.0
28.1099 1273.0
28.1767 1276.0
28.2435 1448.0
28.3104 1375.0
28.3772 1321.0
28.4441 1254.0
28.5109 1177.0
28.5778 1069.0
28.6446 1038.0
28.7115 1066.0
28.7783 1120.0
28.8451 1109.0
28.912 1117.0
28.9788 1053.0
29.0457 1122.0
29.1125 1101.0
29.1794 1117.0
29.2462 1136.0
29.3131 1094.0
29.3799 1120.0
29.4468 1165.0
29.5136 1153.0
29.5804 1133.0
29.6473 1272.0
29.7141 1348.0
29.781 1381.0
29.8478 1385.0
29.9147 1263.0
29.9815 1296.0
30.0484 1377.0
30.1152 1411.0
30.182 1456.0
30.2489 1509.0
30.3157 1585.0
30.3826 1586.0
30.4494 1765.0
30.5163 1910.0
30.5831 1994.0
30.65 2034.0
30.7168 2005.0
30.7837 2382.0
30.8505 2652.0
30.9173 2761.0
30.9842 2714.0
31.051 2593.0
31.1179 2834.0
31.1847 3006.0
31.2516 3022.0
31.3184 2728.0
31.3853 2271.0
31.4521 1976.0
31.519 1692.0
31.5858 1551.0
31.6526 1418.0
31.7195 1381.0
31.7863 1366.0
31.8532 1369.0
31.92 1376.0
31.9869 1340.0
32.0537 1229.0
32.1206 1227.0
32.1874 1170.0
32.2542 1175.0
32.3211 1115.0
32.3879 1101.0
32.4548 1128.0
32.5216 1063.0
32.5885 1168.0
32.6553 1181.0
32.7222 1079.0
32.789 1000.0
32.8559 988.0
32.9227 980.0
32.9895 904.0
33.0564 929.0
33.1232 928.0
33.1901 870.0
33.2569 853.0
33.3238 856.0
33.3906 816.0
33.4575 823.0
33.5243 964.0
33.5911 904.0
33.658 977.0
33.7248 897.0
33.7917 861.0
33.8585 875.0
33.9254 814.0
33.9922 793.0
34.0591 807.0
34.1259 853.0
34.1928 817.0
34.2596 840.0
34.3264 865.0
34.3933 859.0
34.4601 788.0
34.527 792.0
34.5938 792.0
34.6607 830.0
34.7275 772.0
34.7944 845.0
34.8612 878.0
34.928 868.0
34.9949 826.0
35.0617 806.0
35.1286 715.0
35.1954 757.0
35.2623 753.0
35.3291 706.0
35.396 771.0
35.4628 680.0
35.5297 695.0
35.5965 684.0
35.6633 694.0
35.7302 676.0
35.797 703.0
35.8639 710.0
35.9307 707.0
35.9976 666.0
36.0644 772.0
36.1313 736.0
36.1981 746.0
36.265 787.0
36.3318 692.0
36.3986 668.0
36.4655 668.0
36.5323 621.0
36.5992 615.0
36.666 615.0
36.7329 654.0
36.7997 602.0
36.8666 588.0
36.9334 604.0
37.0002 578.0
37.0671 616.0
37.1339 601.0
37.2008 560.0
37.2676 527.0
37.3345 547.0
37.4013 579.0
37.4682 590.0
37.535 568.0
37.6019 573.0
37.6687 614.0
37.7355 582.0
37.8024 488.0
37.8692 544.0
37.9361 518.0
38.0029 508.0
38.0698 542.0
38.1366 570.0
38.2035 581.0
38.2703 538.0
38.3371 544.0
38.404 542.0
38.4708 519.0
38.5377 572.0
38.6045 597.0
38.6714 544.0
38.7382 522.0
38.8051 596.0
38.8719 516.0
38.9388 590.0
39.0056 590.0
39.0724 582.0
39.1393 519.0
39.2061 601.0
39.273 555.0
39.3398 583.0
39.4067 569.0
39.4735 553.0
39.5404 592.0
39.6072 646.0
39.6741 628.0
39.7409 541.0
39.8077 591.0
39.8746 539.0
39.9414 585.0
40.0083 542.0
40.0751 582.0
40.142 589.0
40.2088 588.0
40.2757 536.0
40.3425 581.0
40.4093 542.0
40.4762 516.0
40.543 498.0
40.6099 519.0
40.6767 522.0
40.7436 553.0
40.8104 543.0
40.8773 521.0
40.9441 542.0
41.011 544.0
41.0778 542.0
41.1446 539.0
41.2115 567.0
41.2783 595.0
41.3452 514.0
41.412 556.0
41.4789 539.0
41.5457 547.0
41.6126 511.0
41.6794 521.0
41.7462 526.0
41.8131 507.0
41.8799 528.0
41.9468 476.0
42.0136 534.0
42.0805 494.0
42.1473 547.0
42.2142 550.0
42.281 538.0
42.3479 535.0
42.4147 551.0
42.4815 584.0
42.5484 535.0
42.6152 514.0
42.6821 489.0
42.7489 534.0
42.8158 548.0
42.8826 524.0
42.9495 532.0
43.0163 557.0
43.0831 567.0
43.15 555.0
43.2168 585.0
43.2837 569.0
43.3505 561.0
43.4174 551.0
43.4842 543.0
43.5511 583.0
43.6179 597.0
43.6848 580.0
43.7516 567.0
43.8184 541.0
43.8853 533.0
43.9521 491.0
44.019 540.0
44.0858 542.0
44.1527 545.0
44.2195 513.0
44.2864 528.0
44.3532 540.0
44.4201 536.0
44.4869 488.0
44.5537 511.0
44.6206 574.0
44.6874 552.0
44.7543 529.0
44.8211 501.0
44.888 511.0
44.9548 548.0
45.0217 533.0
45.0885 558.0
45.1553 533.0
45.2222 527.0
45.289 548.0
45.3559 544.0
45.4227 565.0
45.4896 556.0
45.5564 574.0
45.6233 572.0
45.6901 527.0
45.757 537.0
45.8238 558.0
45.8906 540.0
45.9575 549.0
46.0243 564.0
46.0912 506.0
46.158 532.0
46.2249 486.0
46.2917 545.0
46.3586 534.0
46.4254 509.0
46.4922 506.0
46.5591 533.0
46.6259 574.0
46.6928 489.0
46.7596 492.0
46.8265 518.0
46.8933 500.0
46.9602 481.0
47.027 467.0
47.0939 517.0
47.1607 545.0
47.2275 558.0
47.2944 509.0
47.3612 498.0
47.4281 486.0
47.4949 538.0
47.5618 564.0
47.6286 486.0
47.6955 551.0
47.7623 497.0
47.8291 512.0
47.896 545.0
47.9628 537.0
48.0297 483.0
48.0965 516.0
48.1634 532.0
48.2302 540.0
48.2971 554.0
48.3639 544.0
48.4308 482.0
48.4976 525.0
48.5644 503.0
48.6313 502.0
48.6981 497.0
48.765 496.0
48.8318 510.0
48.8987 544.0
48.9655 556.0
49.0324 627.0
49.0992 638.0
49.1661 698.0
49.2329 713.0
49.2997 840.0
49.3666 774.0
49.4334 710.0
49.5003 653.0
49.5671 605.0
49.634 522.0
49.7008 532.0
49.7677 579.0
49.8345 625.0
49.9013 516.0
49.9682 564.0
50.035 557.0
50.1019 520.0
50.1687 527.0
50.2356 567.0
50.3024 545.0
50.3693 585.0
50.4361 542.0
50.503 526.0
50.5698 585.0
50.6366 566.0
50.7035 594.0
50.7703 582.0
50.8372 537.0
50.904 564.0
50.9709 570.0
51.0377 612.0
51.1046 625.0
51.1714 598.0
51.2382 587.0
51.3051 583.0
51.3719 517.0
51.4388 535.0
51.5056 483.0
51.5725 544.0
51.6393 525.0
51.7062 538.0
51.773 512.0
51.8399 523.0
51.9067 503.0
51.9735 520.0
52.0404 550.0
52.1072 511.0
52.1741 504.0
52.2409 481.0
52.3078 485.0
52.3746 458.0
52.4415 522.0
52.5083 464.0
52.5751 478.0
52.642 527.0
52.7088 502.0
52.7757 473.0
52.8425 508.0
52.9094 455.0
52.9762 493.0
53.0431 492.0
53.1099 517.0
53.1768 498.0
53.2436 486.0
53.3104 509.0
53.3773 486.0
53.4441 522.0
53.511 502.0
53.5778 532.0
53.6447 536.0
53.7115 541.0
53.7784 527.0
53.8452 545.0
53.9121 553.0
53.9789 545.0
54.0457 543.0
54.1126 485.0
54.1794 471.0
54.2463 517.0
54.3131 497.0
54.38 487.0
54.4468 493.0
54.5137 458.0
54.5805 522.0
54.6473 506.0
54.7142 535.0
54.781 483.0
54.8479 497.0
54.9147 498.0
54.9816 486.0
55.0484 440.0
55.1153 513.0
55.1821 473.0
55.249 493.0
55.3158 493.0
55.3826 491.0
55.4495 549.0
55.5163 485.0
55.5832 531.0
55.65 482.0
55.7169 544.0
55.7837 471.0
55.8506 519.0
55.9174 494.0
55.9842 508.0
56.0511 480.0
56.1179 463.0
56.1848 476.0
56.2516 487.0
56.3185 498.0
56.3853 507.0
56.4522 488.0
56.519 503.0
56.5859 481.0
56.6527 545.0
56.7195 507.0
56.7864 486.0
56.8532 513.0
56.9201 483.0
56.9869 466.0
57.0538 474.0
57.1206 465.0
57.1875 467.0
57.2543 446.0
57.3212 467.0
57.388 446.0
57.4548 470.0
57.5217 431.0
57.5885 464.0
57.6554 478.0
57.7222 426.0
57.7891 427.0
57.8559 425.0
57.9228 471.0
57.9896 432.0
58.0564 475.0
58.1233 423.0
58.1901 483.0
58.257 426.0
58.3238 439.0
58.3907 448.0
58.4575 420.0
58.5244 414.0
58.5912 485.0
58.6581 474.0
58.7249 459.0
58.7917 447.0
58.8586 450.0
58.9254 479.0
58.9923 428.0
59.0591 418.0
59.126 409.0
59.1928 445.0
59.2597 466.0
59.3265 406.0
59.3933 456.0
59.4602 432.0
59.527 401.0
59.5939 458.0
59.6607 443.0
59.7276 460.0
59.7944 436.0
59.8613 466.0
59.9281 519.0
59.995 495.0
60.0618 461.0
60.1286 503.0
60.1955 508.0
60.2623 432.0
60.3292 446.0
60.396 462.0
60.4629 423.0
60.5297 478.0
60.5966 399.0
60.6634 451.0
60.7302 411.0
60.7971 440.0
60.8639 442.0
60.9308 423.0
60.9976 456.0
61.0645 451.0
61.1313 443.0
61.1982 427.0
61.265 422.0
61.3319 467.0
61.3987 420.0
61.4655 498.0
61.5324 465.0
61.5992 411.0
61.6661 498.0
61.7329 449.0
61.7998 465.0
61.8666 482.0
61.9335 486.0
62.0003 451.0
62.0672 476.0
62.134 455.0
62.2008 443.0
62.2677 449.0
62.3345 447.0
62.4014 454.0
62.4682 454.0
62.5351 435.0
62.6019 423.0
62.6688 419.0
62.7356 410.0
62.8024 431.0
62.8693 398.0
62.9361 458.0
63.003 458.0
63.0698 396.0
63.1367 467.0
63.2035 404.0
63.2704 395.0
63.3372 471.0
63.4041 464.0
63.4709 471.0
63.5377 431.0
63.6046 442.0
63.6714 432.0
63.7383 434.0
63.8051 426.0
63.872 460.0
63.9388 453.0
64.0057 462.0
64.0725 414.0
64.1393 440.0
64.2062 403.0
64.273 430.0
64.3399 389.0
64.4067 426.0
64.4736 389.0
64.5404 416.0
64.6073 420.0
64.6741 393.0
64.741 435.0
64.8078 447.0
64.8746 392.0
64.9415 433.0
65.0083 445.0
65.0752 412.0
65.142 445.0
65.2089 429.0
65.2757 412.0
65.3426 430.0
65.4094 453.0
65.4762 453.0
65.5431 425.0
65.6099 433.0
65.6768 425.0
65.7436 443.0
65.8105 420.0
65.8773 434.0
65.9442 444.0
66.011 462.0
66.0779 455.0
66.1447 476.0
66.2115 444.0
66.2784 488.0
66.3452 488.0
66.4121 454.0
66.4789 464.0
66.5458 485.0
66.6126 482.0
66.6795 471.0
66.7463 500.0
66.8132 455.0
66.88 514.0
66.9468 556.0
67.0137 504.0
67.0805 514.0
67.1474 496.0
67.2142 535.0
67.2811 488.0
67.3479 482.0
67.4148 512.0
67.4816 483.0
67.5484 432.0
67.6153 507.0
67.6821 466.0
67.749 441.0
67.8158 419.0
67.8827 444.0
67.9495 443.0
68.0164 427.0
68.0832 444.0
68.1501 428.0
68.2169 427.0
68.2837 404.0
68.3506 408.0
68.4174 434.0
68.4843 432.0
68.5511 431.0
68.618 427.0
68.6848 410.0
68.7517 414.0
68.8185 448.0
68.8853 392.0
68.9522 438.0
69.019 407.0
69.0859 388.0
69.1527 413.0
69.2196 381.0
69.2864 383.0
69.3533 457.0
69.4201 399.0
69.487 393.0
69.5538 381.0
69.6206 413.0
69.6875 393.0
69.7543 368.0
69.8212 443.0
69.888 446.0
69.9549 417.0
70.0217 409.0
70.0886 403.0
70.1554 417.0
70.2222 430.0
70.2891 397.0
70.3559 393.0
70.4228 415.0
70.4896 434.0
70.5565 465.0
70.6233 432.0
70.6902 381.0
70.757 422.0
70.8239 466.0
70.8907 420.0
70.9575 436.0
71.0244 412.0
71.0912 415.0
71.1581 377.0
71.2249 403.0
71.2918 410.0
71.3586 392.0
71.4255 402.0
71.4923 399.0
71.5592 399.0
71.626 422.0
71.6928 372.0
71.7597 404.0
71.8265 387.0
71.8934 368.0
71.9602 429.0
72.0271 394.0
72.0939 365.0
72.1608 366.0
72.2276 376.0
72.2944 389.0
72.3613 367.0
72.4281 369.0
72.495 339.0
72.5618 379.0
72.6287 367.0
72.6955 394.0
72.7624 363.0
72.8292 382.0
72.8961 419.0
72.9629 385.0
73.0297 389.0
73.0966 348.0
73.1634 368.0
73.2303 350.0
73.2971 382.0
73.364 344.0
73.4308 385.0
73.4977 366.0
73.5645 373.0
73.6313 373.0
73.6982 383.0
73.765 373.0
73.8319 394.0
73.8987 329.0
73.9656 365.0
74.0324 355.0
74.0993 338.0
74.1661 401.0
74.233 366.0
74.2998 341.0
74.3666 354.0
74.4335 389.0
74.5003 369.0
74.5672 371.0
74.634 361.0
74.7009 361.0
74.7677 369.0
74.8346 365.0
74.9014 358.0
74.9683 379.0
75.0351 360.0
75.1019 358.0
75.1688 351.0
75.2356 368.0
75.3025 348.0
75.3693 366.0
75.4362 336.0
75.503 394.0
75.5699 394.0
75.6367 324.0
75.7035 356.0
75.7704 355.0
75.8372 311.0
75.9041 313.0
75.9709 388.0
76.0378 375.0
76.1046 349.0
76.1715 365.0
76.2383 382.0
76.3052 340.0
76.372 353.0
76.4388 361.0
76.5057 355.0
76.5725 302.0
76.6394 356.0
76.7062 334.0
76.7731 335.0
76.8399 321.0
76.9068 355.0
76.9736 365.0
77.0404 325.0
77.1073 298.0
77.1741 310.0
77.241 316.0
77.3078 349.0
77.3747 300.0
77.4415 328.0
77.5084 334.0
77.5752 337.0
77.6421 299.0
77.7089 334.0
77.7757 399.0
77.8426 308.0
77.9094 342.0
77.9763 291.0
78.0431 320.0
78.11 328.0
78.1768 291.0
78.2437 341.0
78.3105 304.0
78.3773 294.0
78.4442 341.0
78.511 313.0
78.5779 287.0
78.6447 310.0
78.7116 316.0
78.7784 333.0
78.8453 324.0
78.9121 297.0
78.979 302.0
79.0458 325.0
79.1126 323.0
79.1795 297.0
79.2463 286.0
79.3132 316.0
79.38 268.0
79.4469 279.0
79.5137 304.0
79.5806 291.0
79.6474 272.0
79.7143 292.0
79.7811 303.0
79.8479 290.0
79.9148 263.0
79.9816 360.0
80.0485 290.0
80.1153 304.0
80.1822 284.0
80.249 294.0
80.3159 317.0
80.3827 293.0
80.4495 269.0
80.5164 319.0
80.5832 298.0
80.6501 275.0
80.7169 273.0
80.7838 288.0
80.8506 287.0
80.9175 286.0
80.9843 318.0
81.0512 271.0
81.118 298.0
81.1848 282.0
81.2517 323.0
81.3185 275.0
81.3854 283.0
81.4522 286.0
81.5191 240.0
81.5859 285.0
81.6528 278.0
81.7196 233.0
81.7864 251.0
81.8533 260.0
81.9201 277.0
81.987 251.0
82.0538 282.0
82.1207 278.0
82.1875 250.0
82.2544 280.0
82.3212 253.0
82.3881 306.0
82.4549 269.0
82.5217 251.0
82.5886 280.0
82.6554 264.0
82.7223 286.0
82.7891 274.0
82.856 250.0
82.9228 253.0
82.9897 232.0
83.0565 248.0
83.1233 264.0
83.1902 245.0
83.257 237.0
83.3239 292.0
83.3907 239.0
83.4576 254.0
83.5244 247.0
83.5913 271.0
83.6581 268.0
83.725 228.0
83.7918 238.0
83.8586 262.0
83.9255 279.0
83.9923 253.0
84.0592 263.0
84.126 229.0
84.1929 228.0
84.2597 231.0
84.3266 277.0
84.3934 263.0
84.4603 204.0
84.5271 251.0
84.5939 212.0
84.6608 246.0
84.7276 243.0
84.7945 230.0
84.8613 255.0
84.9282 230.0
84.995 226.0
85.0619 229.0
85.1287 226.0
85.1955 222.0
85.2624 223.0
85.3292 266.0
85.3961 231.0
85.4629 242.0
85.5298 251.0
85.5966 240.0
85.6635 258.0
85.7303 210.0
85.7972 219.0
85.864 222.0
85.9308 253.0
85.9977 222.0
86.0645 224.0
86.1314 222.0
86.1982 199.0
86.2651 245.0
86.3319 235.0
86.3988 212.0
86.4656 237.0
86.5324 212.0
86.5993 209.0
86.6661 240.0
86.733 208.0
86.7998 223.0
86.8667 200.0
86.9335 206.0
87.0004 221.0
87.0672 189.0
87.1341 212.0
87.2009 198.0
87.2677 201.0
87.3346 220.0
87.4014 201.0
87.4683 209.0
87.5351 233.0
87.602 228.0
87.6688 201.0
87.7357 223.0
87.8025 205.0
87.8693 200.0
87.9362 198.0
88.003 206.0
88.0699 208.0
88.1367 205.0
88.2036 200.0
88.2704 222.0
88.3373 205.0
88.4041 195.0
88.471 210.0
88.5378 197.0
88.6046 204.0
88.6715 206.0
88.7383 200.0
88.8052 200.0
88.872 197.0
88.9389 233.0
89.0057 204.0
89.0726 239.0
89.1394 233.0
89.2063 212.0
89.2731 224.0
89.3399 197.0
89.4068 191.0
89.4736 206.0
89.5405 220.0
89.6073 205.0
89.6742 221.0
89.741 174.0
89.8079 198.0
89.8747 199.0
89.9415 237.0