File: code/XRD_Analysis/Zeolites/data_files/ZnZrOx/20241023_ZnZrOx_CP_240910.xy
4.98146 995.0
5.0483 991.0
5.11515 954.0
5.18199 924.0
5.24884 916.0
5.31568 909.0
5.38253 930.0
5.44937 842.0
5.51622 924.0
5.58306 873.0
5.64991 861.0
5.71675 812.0
5.7836 825.0
5.85044 837.0
5.91729 770.0
5.98413 773.0
6.05098 753.0
6.11782 757.0
6.18467 752.0
6.25151 735.0
6.31836 700.0
6.3852 730.0
6.45205 676.0
6.51889 716.0
6.58574 723.0
6.65258 710.0
6.71943 646.0
6.78627 675.0
6.85312 633.0
6.91996 636.0
6.98681 666.0
7.05365 614.0
7.1205 642.0
7.18734 605.0
7.25419 630.0
7.32103 583.0
7.38788 621.0
7.45472 620.0
7.52157 600.0
7.58841 597.0
7.65526 592.0
7.7221 592.0
7.78895 527.0
7.85579 589.0
7.92264 568.0
7.98948 557.0
8.05633 573.0
8.12317 548.0
8.19002 598.0
8.25686 528.0
8.32371 580.0
8.39055 565.0
8.4574 491.0
8.52424 536.0
8.59109 519.0
8.65793 485.0
8.72478 492.0
8.79162 523.0
8.85847 509.0
8.92532 431.0
8.99216 513.0
9.05901 506.0
9.12585 490.0
9.1927 519.0
9.25954 477.0
9.32639 483.0
9.39323 466.0
9.46008 461.0
9.52692 464.0
9.59377 471.0
9.66061 450.0
9.72746 438.0
9.7943 441.0
9.86115 479.0
9.92799 447.0
9.99484 422.0
10.0617 414.0
10.1285 457.0
10.1954 447.0
10.2622 442.0
10.3291 412.0
10.3959 431.0
10.4628 430.0
10.5296 412.0
10.5964 399.0
10.6633 436.0
10.7301 429.0
10.797 397.0
10.8638 423.0
10.9307 357.0
10.9975 395.0
11.0644 369.0
11.1312 396.0
11.198 383.0
11.2649 376.0
11.3317 339.0
11.3986 372.0
11.4654 404.0
11.5323 396.0
11.5991 391.0
11.666 389.0
11.7328 382.0
11.7997 398.0
11.8665 361.0
11.9333 384.0
12.0002 356.0
12.067 350.0
12.1339 348.0
12.2007 337.0
12.2676 355.0
12.3344 336.0
12.4013 337.0
12.4681 301.0
12.5349 314.0
12.6018 293.0
12.6686 325.0
12.7355 339.0
12.8023 328.0
12.8692 307.0
12.936 310.0
13.0029 308.0
13.0697 301.0
13.1366 299.0
13.2034 314.0
13.2702 303.0
13.3371 290.0
13.4039 324.0
13.4708 314.0
13.5376 311.0
13.6045 320.0
13.6713 297.0
13.7382 294.0
13.805 302.0
13.8719 303.0
13.9387 315.0
14.0055 284.0
14.0724 314.0
14.1392 314.0
14.2061 264.0
14.2729 277.0
14.3398 286.0
14.4066 285.0
14.4735 276.0
14.5403 295.0
14.6071 275.0
14.674 282.0
14.7408 251.0
14.8077 297.0
14.8745 287.0
14.9414 302.0
15.0082 261.0
15.0751 286.0
15.1419 259.0
15.2088 283.0
15.2756 250.0
15.3424 255.0
15.4093 271.0
15.4761 247.0
15.543 243.0
15.6098 237.0
15.6767 257.0
15.7435 238.0
15.8104 244.0
15.8772 294.0
15.944 256.0
16.0109 242.0
16.0777 270.0
16.1446 248.0
16.2114 253.0
16.2783 225.0
16.3451 266.0
16.412 257.0
16.4788 257.0
16.5457 230.0
16.6125 244.0
16.6793 240.0
16.7462 256.0
16.813 240.0
16.8799 253.0
16.9467 261.0
17.0136 285.0
17.0804 216.0
17.1473 253.0
17.2141 247.0
17.2809 261.0
17.3478 225.0
17.4146 251.0
17.4815 231.0
17.5483 251.0
17.6152 229.0
17.682 228.0
17.7489 221.0
17.8157 197.0
17.8826 210.0
17.9494 220.0
18.0162 255.0
18.0831 199.0
18.1499 212.0
18.2168 231.0
18.2836 240.0
18.3505 209.0
18.4173 223.0
18.4842 244.0
18.551 244.0
18.6179 220.0
18.6847 242.0
18.7515 198.0
18.8184 274.0
18.8852 193.0
18.9521 228.0
19.0189 228.0
19.0858 229.0
19.1526 225.0
19.2195 222.0
19.2863 250.0
19.3531 196.0
19.42 227.0
19.4868 227.0
19.5537 199.0
19.6205 235.0
19.6874 213.0
19.7542 229.0
19.8211 211.0
19.8879 209.0
19.9548 240.0
20.0216 235.0
20.0884 239.0
20.1553 224.0
20.2221 231.0
20.289 221.0
20.3558 201.0
20.4227 206.0
20.4895 222.0
20.5564 201.0
20.6232 203.0
20.69 210.0
20.7569 225.0
20.8237 238.0
20.8906 222.0
20.9574 238.0
21.0243 214.0
21.0911 186.0
21.158 211.0
21.2248 236.0
21.2917 246.0
21.3585 204.0
21.4253 228.0
21.4922 214.0
21.559 209.0
21.6259 214.0
21.6927 212.0
21.7596 220.0
21.8264 231.0
21.8933 221.0
21.9601 224.0
22.0269 208.0
22.0938 258.0
22.1606 230.0
22.2275 192.0
22.2943 201.0
22.3612 195.0
22.428 193.0
22.4949 208.0
22.5617 215.0
22.6286 197.0
22.6954 228.0
22.7622 179.0
22.8291 199.0
22.8959 222.0
22.9628 212.0
23.0296 215.0
23.0965 225.0
23.1633 230.0
23.2302 235.0
23.297 213.0
23.3639 205.0
23.4307 211.0
23.4975 230.0
23.5644 230.0
23.6312 191.0
23.6981 207.0
23.7649 236.0
23.8318 215.0
23.8986 219.0
23.9655 206.0
24.0323 209.0
24.0991 237.0
24.166 258.0
24.2328 223.0
24.2997 219.0
24.3665 243.0
24.4334 236.0
24.5002 242.0
24.5671 279.0
24.6339 230.0
24.7008 221.0
24.7676 242.0
24.8344 226.0
24.9013 236.0
24.9681 255.0
25.035 215.0
25.1018 191.0
25.1687 237.0
25.2355 233.0
25.3024 242.0
25.3692 221.0
25.436 238.0
25.5029 233.0
25.5697 219.0
25.6366 240.0
25.7034 241.0
25.7703 222.0
25.8371 241.0
25.904 233.0
25.9708 238.0
26.0377 215.0
26.1045 237.0
26.1713 274.0
26.2382 256.0
26.305 243.0
26.3719 272.0
26.4387 245.0
26.5056 256.0
26.5724 266.0
26.6393 275.0
26.7061 280.0
26.773 269.0
26.8398 272.0
26.9066 257.0
26.9735 254.0
27.0403 255.0
27.1072 277.0
27.174 262.0
27.2409 287.0
27.3077 321.0
27.3746 317.0
27.4414 335.0
27.5082 299.0
27.5751 316.0
27.6419 320.0
27.7088 356.0
27.7756 317.0
27.8425 350.0
27.9093 377.0
27.9762 339.0
28.043 380.0
28.1099 412.0
28.1767 413.0
28.2435 431.0
28.3104 441.0
28.3772 450.0
28.4441 443.0
28.5109 478.0
28.5778 490.0
28.6446 518.0
28.7115 587.0
28.7783 595.0
28.8451 646.0
28.912 701.0
28.9788 716.0
29.0457 807.0
29.1125 842.0
29.1794 879.0
29.2462 966.0
29.3131 1055.0
29.3799 1137.0
29.4468 1231.0
29.5136 1257.0
29.5804 1485.0
29.6473 1624.0
29.7141 1781.0
29.781 2009.0
29.8478 2308.0
29.9147 2657.0
29.9815 3109.0
30.0484 3573.0
30.1152 4687.0
30.182 5551.0
30.2489 7089.0
30.3157 9265.0
30.3826 11669.0
30.4494 13815.0
30.5163 14720.0
30.5831 13255.0
30.65 10386.0
30.7168 7624.0
30.7837 5551.0
30.8505 4130.0
30.9173 3157.0
30.9842 2569.0
31.051 2187.0
31.1179 1830.0
31.1847 1516.0
31.2516 1334.0
31.3184 1137.0
31.3853 1038.0
31.4521 969.0
31.519 891.0
31.5858 773.0
31.6526 699.0
31.7195 722.0
31.7863 621.0
31.8532 582.0
31.92 602.0
31.9869 492.0
32.0537 442.0
32.1206 478.0
32.1874 436.0
32.2542 403.0
32.3211 409.0
32.3879 414.0
32.4548 391.0
32.5216 381.0
32.5885 397.0
32.6553 376.0
32.7222 365.0
32.789 371.0
32.8559 324.0
32.9227 301.0
32.9895 342.0
33.0564 341.0
33.1232 356.0
33.1901 337.0
33.2569 333.0
33.3238 303.0
33.3906 332.0
33.4575 328.0
33.5243 335.0
33.5911 370.0
33.658 349.0
33.7248 354.0
33.7917 364.0
33.8585 361.0
33.9254 387.0
33.9922 408.0
34.0591 432.0
34.1259 453.0
34.1928 431.0
34.2596 475.0
34.3264 528.0
34.3933 503.0
34.4601 521.0
34.527 523.0
34.5938 630.0
34.6607 665.0
34.7275 689.0
34.7944 788.0
34.8612 925.0
34.928 1012.0
34.9949 1183.0
35.0617 1425.0
35.1286 1852.0
35.1954 2315.0
35.2623 2911.0
35.3291 3581.0
35.396 3406.0
35.4628 2916.0
35.5297 2156.0
35.5965 1572.0
35.6633 1159.0
35.7302 941.0
35.797 767.0
35.8639 641.0
35.9307 552.0
35.9976 462.0
36.0644 409.0
36.1313 377.0
36.1981 347.0
36.265 322.0
36.3318 315.0
36.3986 294.0
36.4655 287.0
36.5323 264.0
36.5992 269.0
36.666 241.0
36.7329 227.0
36.7997 247.0
36.8666 229.0
36.9334 235.0
37.0002 204.0
37.0671 235.0
37.1339 184.0
37.2008 190.0
37.2676 203.0
37.3345 194.0
37.4013 176.0
37.4682 186.0
37.535 182.0
37.6019 206.0
37.6687 193.0
37.7355 194.0
37.8024 182.0
37.8692 194.0
37.9361 173.0
38.0029 169.0
38.0698 197.0
38.1366 168.0
38.2035 173.0
38.2703 196.0
38.3371 166.0
38.404 193.0
38.4708 182.0
38.5377 182.0
38.6045 177.0
38.6714 150.0
38.7382 157.0
38.8051 172.0
38.8719 157.0
38.9388 201.0
39.0056 184.0
39.0724 176.0
39.1393 170.0
39.2061 181.0
39.273 183.0
39.3398 177.0
39.4067 194.0
39.4735 157.0
39.5404 177.0
39.6072 155.0
39.6741 189.0
39.7409 163.0
39.8077 160.0
39.8746 152.0
39.9414 164.0
40.0083 167.0
40.0751 189.0
40.142 176.0
40.2088 165.0
40.2757 175.0
40.3425 162.0
40.4093 166.0
40.4762 175.0
40.543 179.0
40.6099 196.0
40.6767 185.0
40.7436 195.0
40.8104 179.0
40.8773 178.0
40.9441 144.0
41.011 176.0
41.0778 181.0
41.1446 195.0
41.2115 185.0
41.2783 151.0
41.3452 179.0
41.412 160.0
41.4789 189.0
41.5457 186.0
41.6126 167.0
41.6794 207.0
41.7462 176.0
41.8131 200.0
41.8799 186.0
41.9468 197.0
42.0136 185.0
42.0805 170.0
42.1473 182.0
42.2142 220.0
42.281 210.0
42.3479 209.0
42.4147 193.0
42.4815 238.0
42.5484 182.0
42.6152 197.0
42.6821 189.0
42.7489 183.0
42.8158 217.0
42.8826 222.0
42.9495 212.0
43.0163 225.0
43.0831 192.0
43.15 222.0
43.2168 206.0
43.2837 222.0
43.3505 215.0
43.4174 207.0
43.4842 221.0
43.5511 212.0
43.6179 217.0
43.6848 222.0
43.7516 205.0
43.8184 216.0
43.8853 198.0
43.9521 200.0
44.019 207.0
44.0858 214.0
44.1527 190.0
44.2195 223.0
44.2864 194.0
44.3532 189.0
44.4201 184.0
44.4869 183.0
44.5537 197.0
44.6206 184.0
44.6874 195.0
44.7543 207.0
44.8211 204.0
44.888 215.0
44.9548 160.0
45.0217 219.0
45.0885 222.0
45.1553 197.0
45.2222 215.0
45.289 201.0
45.3559 200.0
45.4227 222.0
45.4896 211.0
45.5564 232.0
45.6233 207.0
45.6901 211.0
45.757 246.0
45.8238 209.0
45.8906 210.0
45.9575 235.0
46.0243 211.0
46.0912 197.0
46.158 231.0
46.2249 214.0
46.2917 219.0
46.3586 226.0
46.4254 207.0
46.4922 209.0
46.5591 204.0
46.6259 237.0
46.6928 213.0
46.7596 240.0
46.8265 226.0
46.8933 232.0
46.9602 237.0
47.027 239.0
47.0939 241.0
47.1607 259.0
47.2275 244.0
47.2944 247.0
47.3612 261.0
47.4281 272.0
47.4949 258.0
47.5618 254.0
47.6286 282.0
47.6955 294.0
47.7623 258.0
47.8291 302.0
47.896 331.0
47.9628 295.0
48.0297 291.0
48.0965 285.0
48.1634 320.0
48.2302 336.0
48.2971 340.0
48.3639 338.0
48.4308 366.0
48.4976 372.0
48.5644 407.0
48.6313 388.0
48.6981 431.0
48.765 427.0
48.8318 463.0
48.8987 449.0
48.9655 445.0
49.0324 446.0
49.0992 465.0
49.1661 516.0
49.2329 560.0
49.2997 554.0
49.3666 620.0
49.4334 578.0
49.5003 636.0
49.5671 706.0
49.634 766.0
49.7008 750.0
49.7677 822.0
49.8345 913.0
49.9013 1013.0
49.9682 1119.0
50.035 1245.0
50.1019 1388.0
50.1687 1471.0
50.2356 1683.0
50.3024 1879.0
50.3693 2105.0
50.4361 2499.0
50.503 2897.0
50.5698 3400.0
50.6366 4072.0
50.7035 4703.0
50.7703 5357.0
50.8372 5541.0
50.904 5549.0
50.9709 4989.0
51.0377 4290.0
51.1046 3678.0
51.1714 2843.0
51.2382 2230.0
51.3051 1823.0
51.3719 1568.0
51.4388 1258.0
51.5056 1084.0
51.5725 912.0
51.6393 790.0
51.7062 680.0
51.773 650.0
51.8399 638.0
51.9067 560.0
51.9735 539.0
52.0404 456.0
52.1072 472.0
52.1741 422.0
52.2409 423.0
52.3078 365.0
52.3746 366.0
52.4415 367.0
52.5083 352.0
52.5751 306.0
52.642 284.0
52.7088 263.0
52.7757 290.0
52.8425 288.0
52.9094 315.0
52.9762 251.0
53.0431 291.0
53.1099 274.0
53.1768 262.0
53.2436 245.0
53.3104 231.0
53.3773 228.0
53.4441 243.0
53.511 255.0
53.5778 217.0
53.6447 210.0
53.7115 257.0
53.7784 258.0
53.8452 257.0
53.9121 252.0
53.9789 252.0
54.0457 235.0
54.1126 227.0
54.1794 238.0
54.2463 225.0
54.3131 235.0
54.38 225.0
54.4468 213.0
54.5137 239.0
54.5805 240.0
54.6473 213.0
54.7142 240.0
54.781 205.0
54.8479 208.0
54.9147 215.0
54.9816 248.0
55.0484 222.0
55.1153 250.0
55.1821 240.0
55.249 220.0
55.3158 208.0
55.3826 240.0
55.4495 243.0
55.5163 264.0
55.5832 264.0
55.65 235.0
55.7169 226.0
55.7837 242.0
55.8506 238.0
55.9174 231.0
55.9842 228.0
56.0511 226.0
56.1179 207.0
56.1848 271.0
56.2516 216.0
56.3185 248.0
56.3853 237.0
56.4522 248.0
56.519 260.0
56.5859 228.0
56.6527 221.0
56.7195 269.0
56.7864 254.0
56.8532 264.0
56.9201 282.0
56.9869 247.0
57.0538 299.0
57.1206 276.0
57.1875 304.0
57.2543 274.0
57.3212 282.0
57.388 263.0
57.4548 317.0
57.5217 336.0
57.5885 325.0
57.6554 308.0
57.7222 300.0
57.7891 287.0
57.8559 330.0
57.9228 361.0
57.9896 326.0
58.0564 344.0
58.1233 358.0
58.1901 346.0
58.257 384.0
58.3238 370.0
58.3907 408.0
58.4575 392.0
58.5244 472.0
58.5912 447.0
58.6581 456.0
58.7249 457.0
58.7917 485.0
58.8586 490.0
58.9254 503.0
58.9923 547.0
59.0591 566.0
59.126 663.0
59.1928 586.0
59.2597 620.0
59.3265 761.0
59.3933 744.0
59.4602 875.0
59.527 865.0
59.5939 908.0
59.6607 992.0
59.7276 1078.0
59.7944 1209.0
59.8613 1309.0
59.9281 1482.0
59.995 1690.0
60.0618 1888.0
60.1286 2165.0
60.1955 2403.0
60.2623 2865.0
60.3292 3137.0
60.396 3489.0
60.4629 3491.0
60.5297 3425.0
60.5966 3254.0
60.6634 2808.0
60.7302 2302.0
60.7971 1984.0
60.8639 1668.0
60.9308 1390.0
60.9976 1135.0
61.0645 1032.0
61.1313 822.0
61.1982 715.0
61.265 669.0
61.3319 638.0
61.3987 588.0
61.4655 527.0
61.5324 482.0
61.5992 486.0
61.6661 462.0
61.7329 472.0
61.7998 396.0
61.8666 380.0
61.9335 378.0
62.0003 422.0
62.0672 380.0
62.134 389.0
62.2008 386.0
62.2677 326.0
62.3345 358.0
62.4014 388.0
62.4682 372.0
62.5351 378.0
62.6019 377.0
62.6688 388.0
62.7356 466.0
62.8024 429.0
62.8693 442.0
62.9361 487.0
63.003 505.0
63.0698 527.0
63.1367 551.0
63.2035 611.0
63.2704 676.0
63.3372 688.0
63.4041 722.0
63.4709 712.0
63.5377 678.0
63.6046 633.0
63.6714 580.0
63.7383 549.0
63.8051 474.0
63.872 427.0
63.9388 357.0
64.0057 364.0
64.0725 329.0
64.1393 289.0
64.2062 306.0
64.273 277.0
64.3399 267.0
64.4067 247.0
64.4736 239.0
64.5404 260.0
64.6073 243.0
64.6741 242.0
64.741 195.0
64.8078 208.0
64.8746 190.0
64.9415 211.0
65.0083 220.0
65.0752 194.0
65.142 190.0
65.2089 200.0
65.2757 176.0
65.3426 193.0
65.4094 198.0
65.4762 205.0
65.5431 182.0
65.6099 179.0
65.6768 174.0
65.7436 176.0
65.8105 168.0
65.8773 179.0
65.9442 176.0
66.011 165.0
66.0779 180.0
66.1447 172.0
66.2115 158.0
66.2784 181.0
66.3452 167.0
66.4121 163.0
66.4789 175.0
66.5458 179.0
66.6126 143.0
66.6795 173.0
66.7463 162.0
66.8132 145.0
66.88 154.0
66.9468 151.0
67.0137 160.0
67.0805 150.0
67.1474 172.0
67.2142 153.0
67.2811 162.0
67.3479 172.0
67.4148 146.0
67.4816 157.0
67.5484 131.0
67.6153 151.0
67.6821 152.0
67.749 158.0
67.8158 121.0
67.8827 162.0
67.9495 160.0
68.0164 152.0
68.0832 165.0
68.1501 149.0
68.2169 144.0
68.2837 159.0
68.3506 136.0
68.4174 141.0
68.4843 170.0
68.5511 152.0
68.618 145.0
68.6848 130.0
68.7517 143.0
68.8185 145.0
68.8853 138.0
68.9522 136.0
69.019 144.0
69.0859 155.0
69.1527 116.0
69.2196 143.0
69.2864 149.0
69.3533 146.0
69.4201 148.0
69.487 130.0
69.5538 145.0
69.6206 126.0
69.6875 117.0
69.7543 130.0
69.8212 121.0
69.888 117.0
69.9549 139.0
70.0217 128.0
70.0886 115.0
70.1554 136.0
70.2222 137.0
70.2891 111.0
70.3559 145.0
70.4228 122.0
70.4896 136.0
70.5565 134.0
70.6233 146.0
70.6902 130.0
70.757 127.0
70.8239 123.0
70.8907 118.0
70.9575 138.0
71.0244 149.0
71.0912 149.0
71.1581 145.0
71.2249 121.0
71.2918 143.0
71.3586 141.0
71.4255 154.0
71.4923 137.0
71.5592 149.0
71.626 135.0
71.6928 158.0
71.7597 154.0
71.8265 138.0
71.8934 132.0
71.9602 152.0
72.0271 135.0
72.0939 151.0
72.1608 166.0
72.2276 158.0
72.2944 146.0
72.3613 138.0
72.4281 161.0
72.495 190.0
72.5618 192.0
72.6287 152.0
72.6955 149.0
72.7624 181.0
72.8292 148.0
72.8961 181.0
72.9629 153.0
73.0297 175.0
73.0966 168.0
73.1634 198.0
73.2303 161.0
73.2971 201.0
73.364 193.0
73.4308 185.0
73.4977 230.0
73.5645 188.0
73.6313 210.0
73.6982 226.0
73.765 220.0
73.8319 237.0
73.8987 221.0
73.9656 260.0
74.0324 264.0
74.0993 275.0
74.1661 316.0
74.233 305.0
74.2998 381.0
74.3666 410.0
74.4335 412.0
74.5003 446.0
74.5672 469.0
74.634 575.0
74.7009 642.0
74.7677 610.0
74.8346 619.0
74.9014 566.0
74.9683 505.0
75.0351 453.0
75.1019 430.0
75.1688 383.0
75.2356 349.0
75.3025 290.0
75.3693 275.0
75.4362 235.0
75.503 215.0
75.5699 220.0
75.6367 205.0
75.7035 193.0
75.7704 192.0
75.8372 164.0
75.9041 179.0
75.9709 128.0
76.0378 154.0
76.1046 150.0
76.1715 131.0
76.2383 163.0
76.3052 143.0
76.372 161.0
76.4388 157.0
76.5057 157.0
76.5725 179.0
76.6394 146.0
76.7062 155.0
76.7731 141.0
76.8399 121.0
76.9068 144.0
76.9736 138.0
77.0404 118.0
77.1073 134.0
77.1741 159.0
77.241 133.0
77.3078 133.0
77.3747 135.0
77.4415 138.0
77.5084 145.0
77.5752 141.0
77.6421 146.0
77.7089 139.0
77.7757 141.0
77.8426 114.0
77.9094 159.0
77.9763 125.0
78.0431 143.0
78.11 117.0
78.1768 148.0
78.2437 131.0
78.3105 147.0
78.3773 166.0
78.4442 136.0
78.511 165.0
78.5779 149.0
78.6447 174.0
78.7116 160.0
78.7784 151.0
78.8453 157.0
78.9121 161.0
78.979 175.0
79.0458 136.0
79.1126 177.0
79.1795 196.0
79.2463 147.0
79.3132 167.0
79.38 151.0
79.4469 185.0
79.5137 180.0
79.5806 162.0
79.6474 165.0
79.7143 158.0
79.7811 172.0
79.8479 181.0
79.9148 158.0
79.9816 194.0
80.0485 182.0
80.1153 177.0
80.1822 183.0
80.249 177.0
80.3159 185.0
80.3827 215.0
80.4495 219.0
80.5164 208.0
80.5832 214.0
80.6501 168.0
80.7169 230.0
80.7838 227.0
80.8506 246.0
80.9175 248.0
80.9843 224.0
81.0512 235.0
81.118 257.0
81.1848 266.0
81.2517 294.0
81.3185 270.0
81.3854 319.0
81.4522 330.0
81.5191 332.0
81.5859 326.0
81.6528 364.0
81.7196 340.0
81.7864 416.0
81.8533 392.0
81.9201 398.0
81.987 430.0
82.0538 427.0
82.1207 460.0
82.1875 506.0
82.2544 571.0
82.3212 611.0
82.3881 646.0
82.4549 664.0
82.5217 751.0
82.5886 758.0
82.6554 867.0
82.7223 842.0
82.7891 925.0
82.856 927.0
82.9228 842.0
82.9897 831.0
83.0565 802.0
83.1233 728.0
83.1902 708.0
83.257 658.0
83.3239 572.0
83.3907 505.0
83.4576 507.0
83.5244 426.0
83.5913 414.0
83.6581 391.0
83.725 362.0
83.7918 328.0
83.8586 334.0
83.9255 355.0
83.9923 349.0
84.0592 354.0
84.126 288.0
84.1929 325.0
84.2597 330.0
84.3266 319.0
84.3934 319.0
84.4603 323.0
84.5271 358.0
84.5939 344.0
84.6608 361.0
84.7276 364.0
84.7945 372.0
84.8613 427.0
84.9282 429.0
84.995 454.0
85.0619 477.0
85.1287 492.0
85.1955 526.0
85.2624 541.0
85.3292 615.0
85.3961 567.0
85.4629 599.0
85.5298 628.0
85.5966 601.0
85.6635 584.0
85.7303 551.0
85.7972 506.0
85.864 444.0
85.9308 435.0
85.9977 377.0
86.0645 384.0
86.1314 316.0
86.1982 322.0
86.2651 288.0
86.3319 278.0
86.3988 259.0
86.4656 219.0
86.5324 223.0
86.5993 217.0
86.6661 206.0
86.733 221.0
86.7998 219.0
86.8667 165.0
86.9335 183.0
87.0004 189.0
87.0672 180.0
87.1341 160.0
87.2009 179.0
87.2677 163.0
87.3346 174.0
87.4014 176.0
87.4683 180.0
87.5351 175.0
87.602 158.0
87.6688 154.0
87.7357 170.0
87.8025 162.0
87.8693 154.0
87.9362 169.0
88.003 153.0
88.0699 168.0
88.1367 170.0
88.2036 151.0
88.2704 164.0
88.3373 175.0
88.4041 153.0
88.471 159.0
88.5378 147.0
88.6046 153.0
88.6715 136.0
88.7383 154.0
88.8052 142.0
88.872 162.0
88.9389 172.0
89.0057 167.0
89.0726 137.0
89.1394 139.0
89.2063 149.0
89.2731 164.0
89.3399 179.0
89.4068 180.0
89.4736 154.0
89.5405 164.0
89.6073 145.0
89.6742 169.0
89.741 154.0
89.8079 153.0
89.8747 119.0
89.9415 169.0