File: code/XRD_Analysis/Zeolites/data_files/ZnZrOx-Zeolite/20241029_ZnZrOx_SAPO-14-1_calc_PID-tested.xy
4.98146 989.0
5.0483 950.0
5.11515 939.0
5.18199 957.0
5.24884 924.0
5.31568 926.0
5.38253 855.0
5.44937 934.0
5.51622 862.0
5.58306 855.0
5.64991 839.0
5.71675 845.0
5.7836 852.0
5.85044 785.0
5.91729 831.0
5.98413 775.0
6.05098 753.0
6.11782 769.0
6.18467 786.0
6.25151 850.0
6.31836 745.0
6.3852 730.0
6.45205 758.0
6.51889 720.0
6.58574 719.0
6.65258 695.0
6.71943 691.0
6.78627 701.0
6.85312 704.0
6.91996 692.0
6.98681 701.0
7.05365 689.0
7.1205 734.0
7.18734 670.0
7.25419 666.0
7.32103 724.0
7.38788 611.0
7.45472 664.0
7.52157 642.0
7.58841 597.0
7.65526 643.0
7.7221 619.0
7.78895 611.0
7.85579 705.0
7.92264 583.0
7.98948 684.0
8.05633 643.0
8.12317 636.0
8.19002 630.0
8.25686 723.0
8.32371 836.0
8.39055 1194.0
8.4574 1766.0
8.52424 2585.0
8.59109 2419.0
8.65793 1621.0
8.72478 1209.0
8.79162 1064.0
8.85847 947.0
8.92532 859.0
8.99216 760.0
9.05901 657.0
9.12585 607.0
9.1927 668.0
9.25954 743.0
9.32639 814.0
9.39323 877.0
9.46008 929.0
9.52692 972.0
9.59377 809.0
9.66061 605.0
9.72746 504.0
9.7943 525.0
9.86115 486.0
9.92799 512.0
9.99484 551.0
10.0617 471.0
10.1285 496.0
10.1954 508.0
10.2622 502.0
10.3291 485.0
10.3959 463.0
10.4628 508.0
10.5296 555.0
10.5964 464.0
10.6633 487.0
10.7301 496.0
10.797 545.0
10.8638 663.0
10.9307 854.0
10.9975 893.0
11.0644 766.0
11.1312 604.0
11.198 586.0
11.2649 523.0
11.3317 563.0
11.3986 516.0
11.4654 504.0
11.5323 479.0
11.5991 483.0
11.666 503.0
11.7328 497.0
11.7997 502.0
11.8665 473.0
11.9333 427.0
12.0002 432.0
12.067 459.0
12.1339 445.0
12.2007 492.0
12.2676 453.0
12.3344 469.0
12.4013 487.0
12.4681 472.0
12.5349 477.0
12.6018 448.0
12.6686 488.0
12.7355 509.0
12.8023 685.0
12.8692 1238.0
12.936 1329.0
13.0029 1012.0
13.0697 1006.0
13.1366 1076.0
13.2034 1235.0
13.2702 1429.0
13.3371 1805.0
13.4039 2168.0
13.4708 1754.0
13.5376 988.0
13.6045 691.0
13.6713 565.0
13.7382 502.0
13.805 503.0
13.8719 564.0
13.9387 543.0
14.0055 495.0
14.0724 525.0
14.1392 494.0
14.2061 598.0
14.2729 544.0
14.3398 508.0
14.4066 567.0
14.4735 569.0
14.5403 538.0
14.6071 507.0
14.674 487.0
14.7408 455.0
14.8077 445.0
14.8745 449.0
14.9414 430.0
15.0082 425.0
15.0751 402.0
15.1419 430.0
15.2088 441.0
15.2756 439.0
15.3424 457.0
15.4093 438.0
15.4761 455.0
15.543 457.0
15.6098 472.0
15.6767 578.0
15.7435 666.0
15.8104 727.0
15.8772 586.0
15.944 679.0
16.0109 887.0
16.0777 1163.0
16.1446 1042.0
16.2114 635.0
16.2783 474.0
16.3451 433.0
16.412 423.0
16.4788 430.0
16.5457 459.0
16.6125 429.0
16.6793 418.0
16.7462 422.0
16.813 439.0
16.8799 464.0
16.9467 459.0
17.0136 525.0
17.0804 498.0
17.1473 587.0
17.2141 616.0
17.2809 570.0
17.3478 553.0
17.4146 554.0
17.4815 555.0
17.5483 504.0
17.6152 544.0
17.682 536.0
17.7489 535.0
17.8157 559.0
17.8826 550.0
17.9494 540.0
18.0162 547.0
18.0831 488.0
18.1499 543.0
18.2168 506.0
18.2836 523.0
18.3505 485.0
18.4173 609.0
18.4842 637.0
18.551 660.0
18.6179 751.0
18.6847 751.0
18.7515 691.0
18.8184 633.0
18.8852 584.0
18.9521 567.0
19.0189 529.0
19.0858 538.0
19.1526 552.0
19.2195 543.0
19.2863 525.0
19.3531 516.0
19.42 507.0
19.4868 541.0
19.5537 540.0
19.6205 520.0
19.6874 529.0
19.7542 591.0
19.8211 625.0
19.8879 514.0
19.9548 552.0
20.0216 566.0
20.0884 553.0
20.1553 561.0
20.2221 510.0
20.289 576.0
20.3558 589.0
20.4227 536.0
20.4895 566.0
20.5564 628.0
20.6232 692.0
20.69 660.0
20.7569 656.0
20.8237 758.0
20.8906 772.0
20.9574 842.0
21.0243 1022.0
21.0911 1218.0
21.158 1267.0
21.2248 1257.0
21.2917 1337.0
21.3585 1521.0
21.4253 1691.0
21.4922 1694.0
21.559 1840.0
21.6259 1838.0
21.6927 1562.0
21.7596 1402.0
21.8264 1321.0
21.8933 1515.0
21.9601 1975.0
22.0269 2274.0
22.0938 2311.0
22.1606 1997.0
22.2275 1628.0
22.2943 1283.0
22.3612 1142.0
22.428 1039.0
22.4949 888.0
22.5617 824.0
22.6286 819.0
22.6954 737.0
22.7622 805.0
22.8291 698.0
22.8959 714.0
22.9628 714.0
23.0296 651.0
23.0965 712.0
23.1633 685.0
23.2302 714.0
23.297 755.0
23.3639 632.0
23.4307 628.0
23.4975 669.0
23.5644 638.0
23.6312 665.0
23.6981 610.0
23.7649 637.0
23.8318 623.0
23.8986 720.0
23.9655 683.0
24.0323 644.0
24.0991 637.0
24.166 690.0
24.2328 795.0
24.2997 808.0
24.3665 814.0
24.4334 763.0
24.5002 696.0
24.5671 695.0
24.6339 724.0
24.7008 731.0
24.7676 770.0
24.8344 830.0
24.9013 883.0
24.9681 853.0
25.035 873.0
25.1018 815.0
25.1687 820.0
25.2355 803.0
25.3024 845.0
25.3692 797.0
25.436 916.0
25.5029 953.0
25.5697 953.0
25.6366 840.0
25.7034 859.0
25.7703 939.0
25.8371 951.0
25.904 927.0
25.9708 823.0
26.0377 784.0
26.1045 810.0
26.1713 736.0
26.2382 696.0
26.305 684.0
26.3719 726.0
26.4387 750.0
26.5056 693.0
26.5724 715.0
26.6393 759.0
26.7061 772.0
26.773 867.0
26.8398 883.0
26.9066 1042.0
26.9735 1069.0
27.0403 1026.0
27.1072 951.0
27.174 851.0
27.2409 753.0
27.3077 741.0
27.3746 731.0
27.4414 727.0
27.5082 726.0
27.5751 724.0
27.6419 759.0
27.7088 754.0
27.7756 762.0
27.8425 812.0
27.9093 775.0
27.9762 820.0
28.043 800.0
28.1099 839.0
28.1767 838.0
28.2435 860.0
28.3104 846.0
28.3772 839.0
28.4441 880.0
28.5109 861.0
28.5778 971.0
28.6446 1161.0
28.7115 1239.0
28.7783 1163.0
28.8451 1254.0
28.912 1338.0
28.9788 1433.0
29.0457 1423.0
29.1125 1377.0
29.1794 1306.0
29.2462 1347.0
29.3131 1478.0
29.3799 1550.0
29.4468 1552.0
29.5136 1594.0
29.5804 1568.0
29.6473 1589.0
29.7141 1594.0
29.781 1650.0
29.8478 1694.0
29.9147 1902.0
29.9815 2163.0
30.0484 2375.0
30.1152 2542.0
30.182 2883.0
30.2489 3279.0
30.3157 3834.0
30.3826 5010.0
30.4494 5867.0
30.5163 5732.0
30.5831 4982.0
30.65 3634.0
30.7168 2743.0
30.7837 1921.0
30.8505 1666.0
30.9173 1351.0
30.9842 1259.0
31.051 1081.0
31.1179 1031.0
31.1847 967.0
31.2516 943.0
31.3184 950.0
31.3853 960.0
31.4521 875.0
31.519 784.0
31.5858 832.0
31.6526 825.0
31.7195 886.0
31.7863 930.0
31.8532 993.0
31.92 1006.0
31.9869 903.0
32.0537 989.0
32.1206 945.0
32.1874 988.0
32.2542 944.0
32.3211 951.0
32.3879 902.0
32.4548 1032.0
32.5216 981.0
32.5885 1027.0
32.6553 919.0
32.7222 846.0
32.789 781.0
32.8559 693.0
32.9227 650.0
32.9895 644.0
33.0564 652.0
33.1232 631.0
33.1901 633.0
33.2569 592.0
33.3238 625.0
33.3906 606.0
33.4575 698.0
33.5243 649.0
33.5911 602.0
33.658 622.0
33.7248 619.0
33.7917 647.0
33.8585 589.0
33.9254 637.0
33.9922 575.0
34.0591 618.0
34.1259 539.0
34.1928 573.0
34.2596 601.0
34.3264 586.0
34.3933 600.0
34.4601 600.0
34.527 620.0
34.5938 658.0
34.6607 668.0
34.7275 670.0
34.7944 656.0
34.8612 656.0
34.928 672.0
34.9949 714.0
35.0617 828.0
35.1286 889.0
35.1954 1131.0
35.2623 1375.0
35.3291 1472.0
35.396 1453.0
35.4628 1136.0
35.5297 991.0
35.5965 762.0
35.6633 642.0
35.7302 585.0
35.797 549.0
35.8639 503.0
35.9307 518.0
35.9976 524.0
36.0644 475.0
36.1313 464.0
36.1981 408.0
36.265 482.0
36.3318 455.0
36.3986 464.0
36.4655 435.0
36.5323 376.0
36.5992 414.0
36.666 369.0
36.7329 404.0
36.7997 382.0
36.8666 365.0
36.9334 371.0
37.0002 356.0
37.0671 386.0
37.1339 373.0
37.2008 408.0
37.2676 412.0
37.3345 435.0
37.4013 430.0
37.4682 410.0
37.535 406.0
37.6019 397.0
37.6687 369.0
37.7355 380.0
37.8024 381.0
37.8692 365.0
37.9361 414.0
38.0029 403.0
38.0698 415.0
38.1366 459.0
38.2035 412.0
38.2703 431.0
38.3371 362.0
38.404 369.0
38.4708 362.0
38.5377 387.0
38.6045 362.0
38.6714 375.0
38.7382 330.0
38.8051 346.0
38.8719 342.0
38.9388 347.0
39.0056 335.0
39.0724 309.0
39.1393 335.0
39.2061 356.0
39.273 385.0
39.3398 318.0
39.4067 345.0
39.4735 339.0
39.5404 310.0
39.6072 331.0
39.6741 352.0
39.7409 357.0
39.8077 335.0
39.8746 310.0
39.9414 334.0
40.0083 354.0
40.0751 322.0
40.142 290.0
40.2088 332.0
40.2757 328.0
40.3425 318.0
40.4093 357.0
40.4762 337.0
40.543 331.0
40.6099 337.0
40.6767 310.0
40.7436 353.0
40.8104 337.0
40.8773 321.0
40.9441 319.0
41.011 324.0
41.0778 348.0
41.1446 341.0
41.2115 334.0
41.2783 313.0
41.3452 317.0
41.412 371.0
41.4789 303.0
41.5457 335.0
41.6126 329.0
41.6794 337.0
41.7462 345.0
41.8131 331.0
41.8799 331.0
41.9468 349.0
42.0136 358.0
42.0805 358.0
42.1473 383.0
42.2142 322.0
42.281 342.0
42.3479 366.0
42.4147 349.0
42.4815 321.0
42.5484 365.0
42.6152 363.0
42.6821 321.0
42.7489 357.0
42.8158 379.0
42.8826 379.0
42.9495 368.0
43.0163 373.0
43.0831 375.0
43.15 392.0
43.2168 356.0
43.2837 389.0
43.3505 361.0
43.4174 361.0
43.4842 355.0
43.5511 410.0
43.6179 368.0
43.6848 373.0
43.7516 399.0
43.8184 375.0
43.8853 299.0
43.9521 340.0
44.019 314.0
44.0858 346.0
44.1527 334.0
44.2195 357.0
44.2864 329.0
44.3532 365.0
44.4201 381.0
44.4869 350.0
44.5537 389.0
44.6206 377.0
44.6874 397.0
44.7543 351.0
44.8211 373.0
44.888 364.0
44.9548 361.0
45.0217 373.0
45.0885 366.0
45.1553 336.0
45.2222 342.0
45.289 328.0
45.3559 353.0
45.4227 341.0
45.4896 320.0
45.5564 377.0
45.6233 317.0
45.6901 375.0
45.757 342.0
45.8238 310.0
45.8906 377.0
45.9575 380.0
46.0243 352.0
46.0912 350.0
46.158 361.0
46.2249 347.0
46.2917 338.0
46.3586 329.0
46.4254 376.0
46.4922 321.0
46.5591 348.0
46.6259 322.0
46.6928 325.0
46.7596 322.0
46.8265 346.0
46.8933 345.0
46.9602 341.0
47.027 349.0
47.0939 330.0
47.1607 376.0
47.2275 367.0
47.2944 352.0
47.3612 362.0
47.4281 354.0
47.4949 365.0
47.5618 370.0
47.6286 346.0
47.6955 395.0
47.7623 329.0
47.8291 349.0
47.896 320.0
47.9628 321.0
48.0297 375.0
48.0965 345.0
48.1634 375.0
48.2302 378.0
48.2971 385.0
48.3639 363.0
48.4308 356.0
48.4976 372.0
48.5644 417.0
48.6313 394.0
48.6981 411.0
48.765 403.0
48.8318 407.0
48.8987 455.0
48.9655 446.0
49.0324 399.0
49.0992 456.0
49.1661 441.0
49.2329 478.0
49.2997 429.0
49.3666 481.0
49.4334 470.0
49.5003 475.0
49.5671 486.0
49.634 541.0
49.7008 475.0
49.7677 541.0
49.8345 531.0
49.9013 549.0
49.9682 589.0
50.035 572.0
50.1019 544.0
50.1687 664.0
50.2356 674.0
50.3024 753.0
50.3693 829.0
50.4361 913.0
50.503 1018.0
50.5698 1174.0
50.6366 1421.0
50.7035 1618.0
50.7703 1813.0
50.8372 1911.0
50.904 1937.0
50.9709 1743.0
51.0377 1470.0
51.1046 1292.0
51.1714 1052.0
51.2382 963.0
51.3051 806.0
51.3719 706.0
51.4388 586.0
51.5056 621.0
51.5725 616.0
51.6393 604.0
51.7062 542.0
51.773 531.0
51.8399 493.0
51.9067 493.0
51.9735 498.0
52.0404 436.0
52.1072 398.0
52.1741 383.0
52.2409 396.0
52.3078 425.0
52.3746 380.0
52.4415 384.0
52.5083 325.0
52.5751 354.0
52.642 424.0
52.7088 379.0
52.7757 377.0
52.8425 393.0
52.9094 399.0
52.9762 393.0
53.0431 361.0
53.1099 400.0
53.1768 361.0
53.2436 381.0
53.3104 391.0
53.3773 375.0
53.4441 365.0
53.511 348.0
53.5778 403.0
53.6447 375.0
53.7115 369.0
53.7784 349.0
53.8452 367.0
53.9121 340.0
53.9789 334.0
54.0457 376.0
54.1126 333.0
54.1794 334.0
54.2463 337.0
54.3131 340.0
54.38 320.0
54.4468 330.0
54.5137 307.0
54.5805 337.0
54.6473 319.0
54.7142 346.0
54.781 340.0
54.8479 367.0
54.9147 358.0
54.9816 309.0
55.0484 306.0
55.1153 353.0
55.1821 338.0
55.249 337.0
55.3158 348.0
55.3826 348.0
55.4495 303.0
55.5163 354.0
55.5832 355.0
55.65 314.0
55.7169 362.0
55.7837 319.0
55.8506 339.0
55.9174 348.0
55.9842 335.0
56.0511 366.0
56.1179 329.0
56.1848 323.0
56.2516 342.0
56.3185 332.0
56.3853 329.0
56.4522 326.0
56.519 373.0
56.5859 306.0
56.6527 375.0
56.7195 395.0
56.7864 345.0
56.8532 328.0
56.9201 372.0
56.9869 331.0
57.0538 372.0
57.1206 330.0
57.1875 326.0
57.2543 378.0
57.3212 375.0
57.388 357.0
57.4548 398.0
57.5217 373.0
57.5885 385.0
57.6554 356.0
57.7222 381.0
57.7891 387.0
57.8559 317.0
57.9228 347.0
57.9896 367.0
58.0564 386.0
58.1233 375.0
58.1901 384.0
58.257 352.0
58.3238 400.0
58.3907 391.0
58.4575 379.0
58.5244 403.0
58.5912 411.0
58.6581 354.0
58.7249 385.0
58.7917 395.0
58.8586 379.0
58.9254 413.0
58.9923 399.0
59.0591 434.0
59.126 445.0
59.1928 445.0
59.2597 470.0
59.3265 454.0
59.3933 458.0
59.4602 494.0
59.527 473.0
59.5939 503.0
59.6607 498.0
59.7276 531.0
59.7944 580.0
59.8613 609.0
59.9281 688.0
59.995 719.0
60.0618 732.0
60.1286 814.0
60.1955 935.0
60.2623 1047.0
60.3292 1076.0
60.396 1209.0
60.4629 1281.0
60.5297 1241.0
60.5966 1147.0
60.6634 1052.0
60.7302 975.0
60.7971 790.0
60.8639 685.0
60.9308 665.0
60.9976 590.0
61.0645 556.0
61.1313 521.0
61.1982 430.0
61.265 435.0
61.3319 436.0
61.3987 407.0
61.4655 376.0
61.5324 395.0
61.5992 378.0
61.6661 364.0
61.7329 336.0
61.7998 370.0
61.8666 384.0
61.9335 349.0
62.0003 360.0
62.0672 351.0
62.134 352.0
62.2008 315.0
62.2677 349.0
62.3345 328.0
62.4014 408.0
62.4682 350.0
62.5351 347.0
62.6019 356.0
62.6688 356.0
62.7356 370.0
62.8024 331.0
62.8693 358.0
62.9361 381.0
63.003 378.0
63.0698 378.0
63.1367 379.0
63.2035 404.0
63.2704 419.0
63.3372 469.0
63.4041 399.0
63.4709 432.0
63.5377 453.0
63.6046 445.0
63.6714 411.0
63.7383 375.0
63.8051 361.0
63.872 339.0
63.9388 322.0
64.0057 307.0
64.0725 326.0
64.1393 323.0
64.2062 303.0
64.273 275.0
64.3399 286.0
64.4067 289.0
64.4736 305.0
64.5404 282.0
64.6073 300.0
64.6741 293.0
64.741 257.0
64.8078 283.0
64.8746 286.0
64.9415 294.0
65.0083 285.0
65.0752 260.0
65.142 260.0
65.2089 263.0
65.2757 279.0
65.3426 308.0
65.4094 294.0
65.4762 277.0
65.5431 287.0
65.6099 268.0
65.6768 277.0
65.7436 266.0
65.8105 293.0
65.8773 269.0
65.9442 274.0
66.011 266.0
66.0779 271.0
66.1447 259.0
66.2115 273.0
66.2784 276.0
66.3452 271.0
66.4121 248.0
66.4789 269.0
66.5458 251.0
66.6126 267.0
66.6795 289.0
66.7463 270.0
66.8132 236.0
66.88 308.0
66.9468 232.0
67.0137 292.0
67.0805 268.0
67.1474 284.0
67.2142 285.0
67.2811 285.0
67.3479 303.0
67.4148 280.0
67.4816 256.0
67.5484 323.0
67.6153 305.0
67.6821 268.0
67.749 292.0
67.8158 276.0
67.8827 317.0
67.9495 289.0
68.0164 279.0
68.0832 303.0
68.1501 285.0
68.2169 273.0
68.2837 323.0
68.3506 299.0
68.4174 261.0
68.4843 284.0
68.5511 266.0
68.618 290.0
68.6848 247.0
68.7517 292.0
68.8185 288.0
68.8853 259.0
68.9522 261.0
69.019 264.0
69.0859 289.0
69.1527 254.0
69.2196 279.0
69.2864 252.0
69.3533 276.0
69.4201 267.0
69.487 264.0
69.5538 244.0
69.6206 284.0
69.6875 280.0
69.7543 266.0
69.8212 277.0
69.888 266.0
69.9549 247.0
70.0217 260.0
70.0886 280.0
70.1554 263.0
70.2222 252.0
70.2891 275.0
70.3559 243.0
70.4228 247.0
70.4896 276.0
70.5565 239.0
70.6233 309.0
70.6902 289.0
70.757 232.0
70.8239 236.0
70.8907 242.0
70.9575 264.0
71.0244 252.0
71.0912 217.0
71.1581 243.0
71.2249 239.0
71.2918 269.0
71.3586 242.0
71.4255 288.0
71.4923 260.0
71.5592 255.0
71.626 241.0
71.6928 273.0
71.7597 247.0
71.8265 268.0
71.8934 233.0
71.9602 263.0
72.0271 243.0
72.0939 270.0
72.1608 246.0
72.2276 226.0
72.2944 248.0
72.3613 242.0
72.4281 259.0
72.495 264.0
72.5618 283.0
72.6287 273.0
72.6955 230.0
72.7624 242.0
72.8292 248.0
72.8961 269.0
72.9629 269.0
73.0297 244.0
73.0966 268.0
73.1634 251.0
73.2303 268.0
73.2971 259.0
73.364 291.0
73.4308 284.0
73.4977 279.0
73.5645 257.0
73.6313 279.0
73.6982 264.0
73.765 299.0
73.8319 304.0
73.8987 271.0
73.9656 290.0
74.0324 272.0
74.0993 278.0
74.1661 285.0
74.233 298.0
74.2998 262.0
74.3666 285.0
74.4335 279.0
74.5003 322.0
74.5672 318.0
74.634 333.0
74.7009 357.0
74.7677 341.0
74.8346 328.0
74.9014 341.0
74.9683 328.0
75.0351 337.0
75.1019 323.0
75.1688 286.0
75.2356 280.0
75.3025 285.0
75.3693 295.0
75.4362 258.0
75.503 256.0
75.5699 247.0
75.6367 243.0
75.7035 241.0
75.7704 256.0
75.8372 233.0
75.9041 238.0
75.9709 242.0
76.0378 246.0
76.1046 228.0
76.1715 220.0
76.2383 253.0
76.3052 224.0
76.372 240.0
76.4388 255.0
76.5057 244.0
76.5725 195.0
76.6394 208.0
76.7062 246.0
76.7731 217.0
76.8399 237.0
76.9068 228.0
76.9736 246.0
77.0404 236.0
77.1073 238.0
77.1741 242.0
77.241 212.0
77.3078 209.0
77.3747 197.0
77.4415 263.0
77.5084 207.0
77.5752 216.0
77.6421 233.0
77.7089 219.0
77.7757 237.0
77.8426 231.0
77.9094 227.0
77.9763 222.0
78.0431 244.0
78.11 219.0
78.1768 208.0
78.2437 239.0
78.3105 222.0
78.3773 226.0
78.4442 215.0
78.511 209.0
78.5779 210.0
78.6447 221.0
78.7116 204.0
78.7784 214.0
78.8453 212.0
78.9121 215.0
78.979 205.0
79.0458 222.0
79.1126 231.0
79.1795 235.0
79.2463 225.0
79.3132 222.0
79.38 199.0
79.4469 235.0
79.5137 227.0
79.5806 222.0
79.6474 211.0
79.7143 237.0
79.7811 231.0
79.8479 216.0
79.9148 231.0
79.9816 240.0
80.0485 237.0
80.1153 214.0
80.1822 231.0
80.249 211.0
80.3159 211.0
80.3827 197.0
80.4495 215.0
80.5164 245.0
80.5832 219.0
80.6501 207.0
80.7169 217.0
80.7838 215.0
80.8506 207.0
80.9175 235.0
80.9843 213.0
81.0512 227.0
81.118 227.0
81.1848 226.0
81.2517 210.0
81.3185 226.0
81.3854 232.0
81.4522 241.0
81.5191 240.0
81.5859 242.0
81.6528 260.0
81.7196 279.0
81.7864 230.0
81.8533 279.0
81.9201 253.0
81.987 278.0
82.0538 244.0
82.1207 240.0
82.1875 289.0
82.2544 278.0
82.3212 302.0
82.3881 292.0
82.4549 337.0
82.5217 334.0
82.5886 336.0
82.6554 346.0
82.7223 346.0
82.7891 402.0
82.856 387.0
82.9228 385.0
82.9897 365.0
83.0565 349.0
83.1233 318.0
83.1902 341.0
83.257 336.0
83.3239 304.0
83.3907 270.0
83.4576 272.0
83.5244 228.0
83.5913 287.0
83.6581 239.0
83.725 236.0
83.7918 228.0
83.8586 206.0
83.9255 235.0
83.9923 226.0
84.0592 208.0
84.126 225.0
84.1929 221.0
84.2597 237.0
84.3266 215.0
84.3934 232.0
84.4603 215.0
84.5271 214.0
84.5939 238.0
84.6608 216.0
84.7276 222.0
84.7945 206.0
84.8613 226.0
84.9282 236.0
84.995 219.0
85.0619 268.0
85.1287 266.0
85.1955 267.0
85.2624 287.0
85.3292 302.0
85.3961 300.0
85.4629 288.0
85.5298 276.0
85.5966 270.0
85.6635 287.0
85.7303 298.0
85.7972 294.0
85.864 235.0
85.9308 279.0
85.9977 223.0
86.0645 207.0
86.1314 232.0
86.1982 205.0
86.2651 200.0
86.3319 184.0
86.3988 200.0
86.4656 164.0
86.5324 191.0
86.5993 185.0
86.6661 203.0
86.733 205.0
86.7998 165.0
86.8667 173.0
86.9335 182.0
87.0004 183.0
87.0672 195.0
87.1341 152.0
87.2009 173.0
87.2677 191.0
87.3346 194.0
87.4014 169.0
87.4683 176.0
87.5351 145.0
87.602 173.0
87.6688 153.0
87.7357 180.0
87.8025 170.0
87.8693 155.0
87.9362 182.0
88.003 182.0
88.0699 165.0
88.1367 159.0
88.2036 165.0
88.2704 169.0
88.3373 161.0
88.4041 189.0
88.471 154.0
88.5378 159.0
88.6046 177.0
88.6715 123.0
88.7383 182.0
88.8052 170.0
88.872 186.0
88.9389 181.0
89.0057 158.0
89.0726 144.0
89.1394 168.0
89.2063 162.0
89.2731 160.0
89.3399 153.0
89.4068 166.0
89.4736 197.0
89.5405 175.0
89.6073 153.0
89.6742 160.0
89.741 150.0
89.8079 154.0
89.8747 152.0
89.9415 159.0